instructions1,Instructions2,Image1,Image2,Image3,Image_4,position_1x,position_1y,position_2x,position_2y,J_key,K_key,L_key,yes_text,no_text,trial_in_list,image_a,location1,correct_category_pair,location2,location3,correct_image,List,trial_num,block,Trial,ImageA,ImageB,ImageC,CategoryB,ListNum,V1,trial,instruction_intentional_encoding.thisRepN,instruction_intentional_encoding.thisTrialN,instruction_intentional_encoding.thisN,instruction_intentional_encoding.thisIndex,practice_trials_intentional_encoding.thisRepN,practice_trials_intentional_encoding.thisTrialN,practice_trials_intentional_encoding.thisN,practice_trials_intentional_encoding.thisIndex,trials.thisRepN,trials.thisTrialN,trials.thisN,trials.thisIndex,trials_4.thisRepN,trials_4.thisTrialN,trials_4.thisN,trials_4.thisIndex,trials_2.thisRepN,trials_2.thisTrialN,trials_2.thisN,trials_2.thisIndex,trials_5.thisRepN,trials_5.thisTrialN,trials_5.thisN,trials_5.thisIndex,trials_3.thisRepN,trials_3.thisTrialN,trials_3.thisN,trials_3.thisIndex,text.started,text.stopped,instructions_text2.started,instructions_text2.stopped,response.keys,response.rt,response.started,response.stopped,image1.started,image1.stopped,image2.started,image2.stopped,J_press_instructions.started,J_press_instructions.stopped,F_key_instruct.started,F_key_instruct.stopped,arrow.started,arrow.stopped,yes_press.started,yes_press.stopped,no_press.started,no_press.stopped,imageA.started,imageA.stopped,b_image.started,b_image.stopped,text_9.started,text_9.stopped,key_resp_3.keys,key_resp_3.rt,key_resp_3.started,key_resp_3.stopped,image_pair1.started,image_pair1.stopped,image_pair2.started,image_pair2.stopped,text_3.started,text_3.stopped,text_4.started,text_4.stopped,image_3.started,image_3.stopped,key_resp.keys,key_resp.rt,key_resp.started,key_resp.stopped,text_5.started,text_5.stopped,text_8.started,text_8.stopped,key_resp_2.keys,key_resp_2.rt,key_resp_2.started,key_resp_2.stopped,image.started,image.stopped,image_2.started,image_2.stopped,image_5.started,image_5.stopped,image_6.started,image_6.stopped,K.started,K.stopped,L.started,L.stopped,J.started,J.stopped,image_a_practice.started,image_a_practice.stopped,fixation.started,fixation.stopped,afc_test_practice.started,afc_test_practice.stopped,location1_practice.started,location1_practice.stopped,location2_practice.started,location2_practice.stopped,location3_practice.started,location3_practice.stopped,j_key_test_practice.started,j_key_test_practice.stopped,K_key_practice.started,K_key_practice.stopped,L_key_practice.started,L_key_practice.stopped,fix.started,fix.stopped,image_11.started,image_11.stopped,image_12.started,image_12.stopped,text_7.started,text_7.stopped,text_17.started,text_17.stopped,fixation_.started,fixation_.stopped,post_retreival_practice_intructions.started,post_retreival_practice_intructions.stopped,key_resp_4.keys,key_resp_4.rt,key_resp_4.started,key_resp_4.stopped,instruct_text.started,instruct_text.stopped,a_image_retrieve.started,a_image_retrieve.stopped,text_2.started,text_2.stopped,afc_text.started,afc_text.stopped,image_4.started,image_4.stopped,image_9.started,image_9.stopped,image_10.started,image_10.stopped,j_key_test.started,j_key_test.stopped,K_key_test.started,K_key_test.stopped,L_key_test.started,L_key_test.stopped,imagea.started,imagea.stopped,correct_image2.started,correct_image2.stopped,pre_fix_reencode.started,pre_fix_reencode.stopped,Feedback.started,Feedback.stopped,participant,sex,age,,date,expName,psychopyVersion,frameRate,
"Welcome to the memory game! In this game, you must learn which images go together.",Press space to continue!,None,None,None,None,0,0.3,0.0,-0.4, , , , , ,,,,,,,,,,,,,,,,,,,0,0,0,0,,,,,,,,,,,,,,,,,,,,,,,,,7.754496304987697,None,7.754496304987697,None,space,1.0652723840030376,7.754496304987697,None,7.754496304987697,None,7.754496304987697,None,7.716435180976987,None,7.716435180976987,None,7.716435180976987,None,7.716435180976987,None,7.716435180976987,None,,,,,,,,,,,,,,,,,,,,,,,,,,,,,,,,,,,,,,,,,,,,,,,,,,,,,,,,,,,,,,,,,,,,,,,,,,,,,,,,,,,,,,,,,,,,,,,,,,,,,,,,,,,,,,,332,001,,,2020_Sep_05_1758,reactive_intentional_encoding_looped,3.2.4,59.73546579322913,
"You will see two images on the left and right side of the screen, like this.",Press space to continue!,instruction_images/jessica_alba.jpg,instruction_images/oldBook.png,None,None,0,0.3,0.0,-0.4, , , , , ,,,,,,,,,,,,,,,,,,,0,1,1,1,,,,,,,,,,,,,,,,,,,,,,,,,8.999956401996315,None,8.999956401996315,None,space,0.05298501398647204,8.999956401996315,None,8.999956401996315,None,8.999956401996315,None,8.865611703979084,None,8.865611703979084,None,8.865611703979084,None,8.865611703979084,None,8.865611703979084,None,,,,,,,,,,,,,,,,,,,,,,,,,,,,,,,,,,,,,,,,,,,,,,,,,,,,,,,,,,,,,,,,,,,,,,,,,,,,,,,,,,,,,,,,,,,,,,,,,,,,,,,,,,,,,,,332,001,,,2020_Sep_05_1758,reactive_intentional_encoding_looped,3.2.4,59.73546579322913,
Your job is to remember that these images go together. ,Press space to continue!,instruction_images/jessica_alba.jpg,instruction_images/oldBook.png,None,None,0,0.3,0.0,-0.4, , , , , ,,,,,,,,,,,,,,,,,,,0,2,2,2,,,,,,,,,,,,,,,,,,,,,,,,,9.19928905897541,None,9.19928905897541,None,space,0.04764328998862766,9.19928905897541,None,9.19928905897541,None,9.19928905897541,None,9.132741415000055,None,9.132741415000055,None,9.132741415000055,None,9.132741415000055,None,9.132741415000055,None,,,,,,,,,,,,,,,,,,,,,,,,,,,,,,,,,,,,,,,,,,,,,,,,,,,,,,,,,,,,,,,,,,,,,,,,,,,,,,,,,,,,,,,,,,,,,,,,,,,,,,,,,,,,,,,332,001,,,2020_Sep_05_1758,reactive_intentional_encoding_looped,3.2.4,59.73546579322913,
"You could link them through a story. For example, jessica alba likes books.",Press space to continue!,instruction_images/jessica_alba.jpg,instruction_images/oldBook.png,None,None,0,0.3,0.0,-0.4, , , , , ,,,,,,,,,,,,,,,,,,,0,3,3,3,,,,,,,,,,,,,,,,,,,,,,,,,9.389586801989935,None,9.389586801989935,None,space,0.03833762402064167,9.389586801989935,None,9.389586801989935,None,9.389586801989935,None,9.333337612973992,None,9.333337612973992,None,9.333337612973992,None,9.333337612973992,None,9.333337612973992,None,,,,,,,,,,,,,,,,,,,,,,,,,,,,,,,,,,,,,,,,,,,,,,,,,,,,,,,,,,,,,,,,,,,,,,,,,,,,,,,,,,,,,,,,,,,,,,,,,,,,,,,,,,,,,,,332,001,,,2020_Sep_05_1758,reactive_intentional_encoding_looped,3.2.4,59.73546579322913,
"After you see the images, we will test your memory.",Press space to continue!,instruction_images/jessica_alba.jpg,instruction_images/oldBook.png,None,None,0,0.3,0.0,-0.4, , , , , ,,,,,,,,,,,,,,,,,,,0,4,4,4,,,,,,,,,,,,,,,,,,,,,,,,,9.565978981991066,None,9.565978981991066,None,space,0.060277420008787885,9.565978981991066,None,9.565978981991066,None,9.565978981991066,None,9.500616895995336,None,9.500616895995336,None,9.500616895995336,None,9.500616895995336,None,9.500616895995336,None,,,,,,,,,,,,,,,,,,,,,,,,,,,,,,,,,,,,,,,,,,,,,,,,,,,,,,,,,,,,,,,,,,,,,,,,,,,,,,,,,,,,,,,,,,,,,,,,,,,,,,,,,,,,,,,332,001,,,2020_Sep_05_1758,reactive_intentional_encoding_looped,3.2.4,59.73546579322913,
"Get ready to see the images! Each pair will only last on the screen for a few seconds, so pay attention.",Press space to continue!,instruction_images/jessica_alba.jpg,instruction_images/oldBook.png,None,None,0,0.3,0.0,-0.4, , , , , ,,,,,,,,,,,,,,,,,,,0,5,5,5,,,,,,,,,,,,,,,,,,,,,,,,,9.756457338982727,None,9.756457338982727,None,space,0.052517405012622476,9.756457338982727,None,9.756457338982727,None,9.756457338982727,None,9.69998521899106,None,9.69998521899106,None,9.69998521899106,None,9.69998521899106,None,9.69998521899106,None,,,,,,,,,,,,,,,,,,,,,,,,,,,,,,,,,,,,,,,,,,,,,,,,,,,,,,,,,,,,,,,,,,,,,,,,,,,,,,,,,,,,,,,,,,,,,,,,,,,,,,,,,,,,,,,332,001,,,2020_Sep_05_1758,reactive_intentional_encoding_looped,3.2.4,59.73546579322913,
We'll first do a practice to get you familiar with the game.,Press space to continue!,instruction_images/jessica_alba.jpg,instruction_images/oldBook.png,None,None,0,0.3,0.0,-0.4, , , , , ,,,,,,,,,,,,,,,,,,,0,6,6,6,,,,,,,,,,,,,,,,,,,,,,,,,9.933083621988771,None,9.933083621988771,None,space,0.06990628998028114,9.933083621988771,None,9.933083621988771,None,9.933083621988771,None,9.867186364979716,None,9.867186364979716,None,9.867186364979716,None,9.867186364979716,None,9.867186364979716,None,,,,,,,,,,,,,,,,,,,,,,,,,,,,,,,,,,,,,,,,,,,,,,,,,,,,,,,,,,,,,,,,,,,,,,,,,,,,,,,,,,,,,,,,,,,,,,,,,,,,,,,,,,,,,,,332,001,,,2020_Sep_05_1758,reactive_intentional_encoding_looped,3.2.4,59.73546579322913,
"When you're ready to start the practice, press space!",Press space to continue!,None,None,None,None,0,0.0,None,None, , , , , ,,,,,,,,,,,,,,,,,,,0,7,7,7,,,,,,,,,,,,,,,,,,,,,,,,,10.132282791979378,None,10.132282791979378,None,space,0.07663243598653935,10.132282791979378,None,10.132282791979378,None,10.132282791979378,None,10.081714036990888,None,10.081714036990888,None,10.081714036990888,None,10.081714036990888,None,10.081714036990888,None,,,,,,,,,,,,,,,,,,,,,,,,,,,,,,,,,,,,,,,,,,,,,,,,,,,,,,,,,,,,,,,,,,,,,,,,,,,,,,,,,,,,,,,,,,,,,,,,,,,,,,,,,,,,,,,332,001,,,2020_Sep_05_1758,reactive_intentional_encoding_looped,3.2.4,59.73546579322913,
,,,,,,,,,,,,,,,1,images/giftbow01.png,images/willie_nelson_b.jpg,object-face,images/electricoutlet.png,images/chick.jpg,images/willie_nelson_b.jpg,0,0,practice,,,,,,,,,,,,,0,0,0,0,,,,,,,,,,,,,,,,,,,,,,,,,,,,,,,,,,,,,,,,,,,10.289591674983967,None,10.289591674983967,None,,,,,,,,,,,,,,,,,,,,,,,,,,,,,,,,,,,,,,,,,,,,,,,,,,,,,,,,,,,,,,,,,,,,,,,,,,,,,,,,,,,,,,,,,,,,,,,,,,,,,,,,,,,332,001,,,2020_Sep_05_1758,reactive_intentional_encoding_looped,3.2.4,59.73546579322913,
,,,,,,,,,,,,,,,2,images/globe.png,images/earrings_dangling.jpg,object-scene,images/wrigley_field_b.jpg,images/barrel.jpg,images/wrigley_field_b.jpg,0,0,practice,,,,,,,,,,,,,0,1,1,1,,,,,,,,,,,,,,,,,,,,,,,,,,,,,,,,,,,,,,,,,,,10.432906190981157,None,10.432906190981157,None,,,,,,,,,,,,,,,,,,,,,,,,,,,,,,,,,,,,,,,,,,,,,,,,,,,,,,,,,,,,,,,,,,,,,,,,,,,,,,,,,,,,,,,,,,,,,,,,,,,,,,,,,,,332,001,,,2020_Sep_05_1758,reactive_intentional_encoding_looped,3.2.4,59.73546579322913,
,,,,,,,,,,,,,,,3,images/glassBall.jpg,images/westminster_abbey_a.jpg,object-scene,images/beetle.png,images/statue_of_liberty.jpg,images/westminster_abbey_a.jpg,0,0,practice,,,,,,,,,,,,,0,2,2,2,,,,,,,,,,,,,,,,,,,,,,,,,,,,,,,,,,,,,,,,,,,10.516351690981537,None,10.516351690981537,None,,,,,,,,,,,,,,,,,,,,,,,,,,,,,,,,,,,,,,,,,,,,,,,,,,,,,,,,,,,,,,,,,,,,,,,,,,,,,,,,,,,,,,,,,,,,,,,,,,,,,,,,,,,332,001,,,2020_Sep_05_1758,reactive_intentional_encoding_looped,3.2.4,59.73546579322913,
,,,,,,,,,,,,,,,4,images/gazebo_wooden.png,images/ray_romano.jpg,object-face,images/john_stamos.jpg,images/natalie_portman.jpg,images/natalie_portman.jpg,0,0,practice,,,,,,,,,,,,,0,3,3,3,,,,,,,,,,,,,,,,,,,,,,,,,,,,,,,,,,,,,,,,,,,10.633113294985378,None,10.633113294985378,None,,,,,,,,,,,,,,,,,,,,,,,,,,,,,,,,,,,,,,,,,,,,,,,,,,,,,,,,,,,,,,,,,,,,,,,,,,,,,,,,,,,,,,,,,,,,,,,,,,,,,,,,,,,332,001,,,2020_Sep_05_1758,reactive_intentional_encoding_looped,3.2.4,59.73546579322913,
,,,,,,,,,,,,,,,5,images/helicopter.jpg,images/bench_park.png,object-face,images/bird_parrot.png,images/julia_louis_dreyfus.jpg,images/julia_louis_dreyfus.jpg,0,0,practice,,,,,,,,,,,,,0,4,4,4,,,,,,,,,,,,,,,,,,,,,,,,,,,,,,,,,,,,,,,,,,,10.716708983993158,None,10.716708983993158,None,,,,,,,,,,,,,,,,,,,,,,,,,,,,,,,,,,,,,,,,,,,,,,,,,,,,,,,,,,,,,,,,,,,,,,,,,,,,,,,,,,,,,,,,,,,,,,,,,,,,,,,,,,,332,001,,,2020_Sep_05_1758,reactive_intentional_encoding_looped,3.2.4,59.73546579322913,
,,,,,,,,,,,,,,,,,,,,,,,,,,,,,,,,,,,,,,,,,,,,,,,,,,,,,,,,,,,,,,,,,,,,,,,,,,,,,,,,,,,,,,,10.766374057973735,None,space,0.11839642800623551,11.248490334983217,None,,,,,,,,,,,,,,,,,,,,,,,,,,,,,,,,,,,,,,,,,,,,,,,,,,,,,,,,,,,,,,,,,,,,,,,,,,,,,,,,,,,,,,,,,,,,,,,,,,,,,332,001,,,2020_Sep_05_1758,reactive_intentional_encoding_looped,3.2.4,59.73546579322913,
,,,,,,,,,,,,,,,,,,,,,,,,,1,images/sundae_banana.jpg,images/eiffel_tower_c.jpg,images/mitten.png,object-scene,None,,,,,,,,,,,0,0,0,0,,,,,,,,,,,,,,,,,,,,,,,,,,,,,,,,,,,,,,,,,,,,,,,,,11.898593204998178,None,11.898593204998178,None,,,,,,,,,,,,,,,,,,,,,,,,,,,,,,,,,,,,,,,,,,,,,,,,,,,,,,,,,,,,,,,,,,,,,,,,,,,,,,,,,,,,,,,,,,,,,,,,,332,001,,,2020_Sep_05_1758,reactive_intentional_encoding_looped,3.2.4,59.73546579322913,
,,,,,,,,,,,,,,,,,,,,,,,,,2,images/castle_sand.png,images/gwen_stefani_c.jpg,images/mask_hockeygoalie.png,object-face,None,,,,,,,,,,,0,1,1,1,,,,,,,,,,,,,,,,,,,,,,,,,,,,,,,,,,,,,,,,,,,,,,,,,12.898435273993528,None,12.898435273993528,None,,,,,,,,,,,,,,,,,,,,,,,,,,,,,,,,,,,,,,,,,,,,,,,,,,,,,,,,,,,,,,,,,,,,,,,,,,,,,,,,,,,,,,,,,,,,,,,,,332,001,,,2020_Sep_05_1758,reactive_intentional_encoding_looped,3.2.4,59.73546579322913,
,,,,,,,,,,,,,,,,,,,,,,,,,3,images/checkers_board.png,images/golden_gate_bridge_b.jpg,images/mop.png,object-scene,None,,,,,,,,,,,0,2,2,2,,,,,,,,,,,,,,,,,,,,,,,,,,,,,,,,,,,,,,,,,,,,,,,,,13.898806937999325,13.419914728001459,13.898806937999325,13.419914728001459,,,,,,,,,,,,,,,,,,,,,,,,,,,,,,,,,,,,,,,,,,,,,,,,,,,,,,,,,,,,,,,,,,,,,,,,,,,,,,,,,,,,,,,,,,,,,,,,,332,001,,,2020_Sep_05_1758,reactive_intentional_encoding_looped,3.2.4,59.73546579322913,
,,,,,,,,,,,,,,,,,,,,,,,,,4,images/figurine_ballerina.jpg,images/courtney_cox_c.jpg,images/pan_muffin.png,object-face,None,,,,,,,,,,,0,3,3,3,,,,,,,,,,,,,,,,,,,,,,,,,,,,,,,,,,,,,,,,,,,,,,,,,14.915599277999718,None,14.915599277999718,None,,,,,,,,,,,,,,,,,,,,,,,,,,,,,,,,,,,,,,,,,,,,,,,,,,,,,,,,,,,,,,,,,,,,,,,,,,,,,,,,,,,,,,,,,,,,,,,,,332,001,,,2020_Sep_05_1758,reactive_intentional_encoding_looped,3.2.4,59.73546579322913,
,,,,,,,,,,,,,,,,,,,,,,,,,5,images/flute_wooden.jpg,images/jimmy_fallon.jpg,images/mechanic.jpg,object-face,None,,,,,,,,,,,0,4,4,4,,,,,,,,,,,,,,,,,,,,,,,,,,,,,,,,,,,,,,,,,,,,,,,,,15.916238215984777,None,15.916238215984777,None,,,,,,,,,,,,,,,,,,,,,,,,,,,,,,,,,,,,,,,,,,,,,,,,,,,,,,,,,,,,,,,,,,,,,,,,,,,,,,,,,,,,,,,,,,,,,,,,,332,001,,,2020_Sep_05_1758,reactive_intentional_encoding_looped,3.2.4,59.73546579322913,
,,,,,,,,,,,,,,,,,,,,,,,,,6,images/fuzzydice.jpg,images/ellen_degeneres_b.jpg,images/soap.png,object-face,None,,,,,,,,,,,0,5,5,5,,,,,,,,,,,,,,,,,,,,,,,,,,,,,,,,,,,,,,,,,,,,,,,,,16.91596193498117,None,16.91596193498117,None,,,,,,,,,,,,,,,,,,,,,,,,,,,,,,,,,,,,,,,,,,,,,,,,,,,,,,,,,,,,,,,,,,,,,,,,,,,,,,,,,,,,,,,,,,,,,,,,,332,001,,,2020_Sep_05_1758,reactive_intentional_encoding_looped,3.2.4,59.73546579322913,
,,,,,,,,,,,,,,,,,,,,,,,,,7,images/dog_toy.png,images/queen_elizabeth_a.jpg,images/paper towel.jpg,object-face,None,,,,,,,,,,,0,6,6,6,,,,,,,,,,,,,,,,,,,,,,,,,,,,,,,,,,,,,,,,,,,,,,,,,17.89943922398379,None,17.89943922398379,None,,,,,,,,,,,,,,,,,,,,,,,,,,,,,,,,,,,,,,,,,,,,,,,,,,,,,,,,,,,,,,,,,,,,,,,,,,,,,,,,,,,,,,,,,,,,,,,,,332,001,,,2020_Sep_05_1758,reactive_intentional_encoding_looped,3.2.4,59.73546579322913,
,,,,,,,,,,,,,,,,,,,,,,,,,8,images/champagne.jpg,images/arches_national_park_a.jpg,images/noisemaker.jpg,object-scene,None,,,,,,,,,,,0,7,7,7,,,,,,,,,,,,,,,,,,,,,,,,,,,,,,,,,,,,,,,,,,,,,,,,,18.899039385985816,None,18.899039385985816,None,,,,,,,,,,,,,,,,,,,,,,,,,,,,,,,,,,,,,,,,,,,,,,,,,,,,,,,,,,,,,,,,,,,,,,,,,,,,,,,,,,,,,,,,,,,,,,,,,332,001,,,2020_Sep_05_1758,reactive_intentional_encoding_looped,3.2.4,59.73546579322913,
,,,,,,,,,,,,,,,,,,,,,,,,,9,images/fan.png,images/giza_pyramids_c.jpg,images/pencilCase.png,object-scene,None,,,,,,,,,,,0,8,8,8,,,,,,,,,,,,,,,,,,,,,,,,,,,,,,,,,,,,,,,,,,,,,,,,,19.898956609977176,19.415697171993088,19.898956609977176,19.415697171993088,,,,,,,,,,,,,,,,,,,,,,,,,,,,,,,,,,,,,,,,,,,,,,,,,,,,,,,,,,,,,,,,,,,,,,,,,,,,,,,,,,,,,,,,,,,,,,,,,332,001,,,2020_Sep_05_1758,reactive_intentional_encoding_looped,3.2.4,59.73546579322913,
,,,,,,,,,,,,,,,,,,,,,,,,,10,images/mannequin.jpg,images/julia_roberts_c.jpg,images/newspaper_stack.png,object-face,None,,,,,,,,,,,0,9,9,9,,,,,,,,,,,,,,,,,,,,,,,,,,,,,,,,,,,,,,,,,,,,,,,,,20.898652887990465,20.415785289980704,20.898652887990465,20.415785289980704,,,,,,,,,,,,,,,,,,,,,,,,,,,,,,,,,,,,,,,,,,,,,,,,,,,,,,,,,,,,,,,,,,,,,,,,,,,,,,,,,,,,,,,,,,,,,,,,,332,001,,,2020_Sep_05_1758,reactive_intentional_encoding_looped,3.2.4,59.73546579322913,
,,,,,,,,,,,,,,,,,,,,,,,,,11,images/flipflopsBlue.png,images/flatiron_building_b.jpg,images/paddle.png,object-scene,None,,,,,,,,,,,0,10,10,10,,,,,,,,,,,,,,,,,,,,,,,,,,,,,,,,,,,,,,,,,,,,,,,,,21.898338183993474,None,21.898338183993474,None,,,,,,,,,,,,,,,,,,,,,,,,,,,,,,,,,,,,,,,,,,,,,,,,,,,,,,,,,,,,,,,,,,,,,,,,,,,,,,,,,,,,,,,,,,,,,,,,,332,001,,,2020_Sep_05_1758,reactive_intentional_encoding_looped,3.2.4,59.73546579322913,
,,,,,,,,,,,,,,,,,,,,,,,,,12,images/bib.png,images/glacier_national_park_c.jpg,images/paintcan.jpg,object-scene,None,,,,,,,,,,,0,11,11,11,,,,,,,,,,,,,,,,,,,,,,,,,,,,,,,,,,,,,,,,,,,,,,,,,22.916076322988374,22.432124770974042,22.916076322988374,22.432124770974042,,,,,,,,,,,,,,,,,,,,,,,,,,,,,,,,,,,,,,,,,,,,,,,,,,,,,,,,,,,,,,,,,,,,,,,,,,,,,,,,,,,,,,,,,,,,,,,,,332,001,,,2020_Sep_05_1758,reactive_intentional_encoding_looped,3.2.4,59.73546579322913,
Great job! Now we will see how well you remember which images go together.,Press space to continue!,None,None,None,None,0,0.3,0.0,-0.4, , , , , ,,,,,,,,,,,,,,,,,,,,,,,,,,,,,,,0,0,0,0,,,,,,,,,,,,,,,,,,,,,,,,,,,,,,,,,,,,,,,,,,,,,,,,,23.465665919997264,None,23.465665919997264,None,23.465665919997264,None,space,1.880083766009193,23.49880089398357,None,,,,,,,,,,,,,,,,,,,,,,,,,,,,,,,,,,,,,,,,,,,,,,,,,,,,,,,,,,,,,,,,,,,,,,,,,,,,,,,,,,,,,,,332,001,,,2020_Sep_05_1758,reactive_intentional_encoding_looped,3.2.4,59.73546579322913,
"You will first see one image, like below. Your job is to recall the image that it was paired with when you see this image.",Press space to continue!,instruction_images/jessica_alba.jpg,None,None,None,0,0.3,0.0,-0.4, , , , , ,,,,,,,,,,,,,,,,,,,,,,,,,,,,,,,0,1,1,1,,,,,,,,,,,,,,,,,,,,,,,,,,,,,,,,,,,,,,,,,,,,,,,,,25.44866535998881,None,25.44866535998881,None,25.44866535998881,None,space,0.42026233999058604,25.499110199976712,None,,,,,,,,,,,,,,,,,,,,,,,,,,,,,,,,,,,,,,,,,,,,,,,,,,,,,,,,,,,,,,,,,,,,,,,,,,,,,,,,,,,,,,,332,001,,,2020_Sep_05_1758,reactive_intentional_encoding_looped,3.2.4,59.73546579322913,
"Here, you should recall the book.",Press space to continue!,instruction_images/jessica_alba.jpg,None,None,None,0,0.3,0.0,-0.4,J,K,L, , ,,,,,,,,,,,,,,,,,,,,,,,,,,,,,,,0,2,2,2,,,,,,,,,,,,,,,,,,,,,,,,,,,,,,,,,,,,,,,,,,,,,,,,,26.032137799978955,None,26.032137799978955,None,26.032137799978955,None,space,0.20606632000999525,26.068306914996356,None,,,,,,,,,,,,,,,,,,,,,,,,,,,,,,,,,,,,,,,,,,,,,,,,,,,,,,,,,,,,,,,,,,,,,,,,,,,,,,,,,,,,,,,332,001,,,2020_Sep_05_1758,reactive_intentional_encoding_looped,3.2.4,59.73546579322913,
"Then, you will see 3 other images and your job is to select the correct image pair. Use the keys 'J', 'K', or 'L' to indicate your choice.",Press space to continue!,instruction_images/jessica_alba.jpg,instruction_images/oldBook.png,instruction_images/alpaca_fo.jpg,instruction_images/antlers.jpg,0,0.3,0.0,-0.4,J,K,L, , ,,,,,,,,,,,,,,,,,,,,,,,,,,,,,,,,,,,0,0,0,0,,,,,,,,,,,,,,,,,,,,,,,,,,,,,,,,,,,,,,,,,,,,,,,,,,,,,,,26.482567141996697,None,26.482567141996697,None,space,0.12733152500004508,26.765022253995994,None,26.482567141996697,None,26.482567141996697,None,26.482567141996697,None,26.482567141996697,None,26.482567141996697,None,26.482567141996697,None,26.482567141996697,None,,,,,,,,,,,,,,,,,,,,,,,,,,,,,,,,,,,,,,,,,,,,,,,,,,,,,,,,,,,,,,,,,332,001,,,2020_Sep_05_1758,reactive_intentional_encoding_looped,3.2.4,59.73546579322913,
"Here, you should press 'L' because the woman, Jessica Alba, was paired with the book.",Press 'L' to continue!,None,instruction_images/oldBook.png,instruction_images/alpaca_fo.jpg,instruction_images/antlers.jpg,0,0.3,0.0,-0.4,J,K,L, , ,,,,,,,,,,,,,,,,,,,,,,,,,,,,,,,,,,,0,1,1,1,,,,,,,,,,,,,,,,,,,,,,,,,,,,,,,,,,,,,,,,,,,,,,,,,,,,,,,27.083232610981213,None,27.083232610981213,None,space,0.12901523400796577,27.39938752699527,None,27.083232610981213,None,27.083232610981213,None,27.083232610981213,None,27.083232610981213,None,27.083232610981213,None,27.083232610981213,None,27.083232610981213,None,,,,,,,,,,,,,,,,,,,,,,,,,,,,,,,,,,,,,,,,,,,,,,,,,,,,,,,,,,,,,,,,,332,001,,,2020_Sep_05_1758,reactive_intentional_encoding_looped,3.2.4,59.73546579322913,
This portion is timed. Respond quickly and think of your answer as soon as you see the first image. ,Press space to continue!,None,instruction_images/oldBook.png,instruction_images/alpaca_fo.jpg,instruction_images/antlers.jpg,0,0.3,0.0,-0.4,J,K,L, , ,,,,,,,,,,,,,,,,,,,,,,,,,,,,,,,,,,,0,2,2,2,,,,,,,,,,,,,,,,,,,,,,,,,,,,,,,,,,,,,,,,,,,,,,,,,,,,,,,27.698848892992828,None,27.698848892992828,None,space,0.11148746300023049,28.064798707986483,None,27.698848892992828,None,27.698848892992828,None,27.698848892992828,None,27.698848892992828,None,27.698848892992828,None,27.698848892992828,None,27.698848892992828,None,,,,,,,,,,,,,,,,,,,,,,,,,,,,,,,,,,,,,,,,,,,,,,,,,,,,,,,,,,,,,,,,,332,001,,,2020_Sep_05_1758,reactive_intentional_encoding_looped,3.2.4,59.73546579322913,
"These keyboard options will remain on the screen under each image as a reminder throughout the task. If you don't know the answer, take a guess. You will then be shown the correct image. Re-study the image pairs because you will be tested a second time.",Press space to continue!,None,instruction_images/oldBook.png,instruction_images/alpaca_fo.jpg,instruction_images/antlers.jpg,0,0.3,0.0,-0.4,J,K,L, , ,,,,,,,,,,,,,,,,,,,,,,,,,,,,,,,,,,,0,3,3,3,,,,,,,,,,,,,,,,,,,,,,,,,,,,,,,,,,,,,,,,,,,,,,,,,,,,,,,28.403762746980647,None,28.403762746980647,None,space,0.11412633099826053,28.688124537991825,None,28.403762746980647,None,28.403762746980647,None,28.403762746980647,None,28.403762746980647,None,28.403762746980647,None,28.403762746980647,None,28.403762746980647,None,,,,,,,,,,,,,,,,,,,,,,,,,,,,,,,,,,,,,,,,,,,,,,,,,,,,,,,,,,,,,,,,,332,001,,,2020_Sep_05_1758,reactive_intentional_encoding_looped,3.2.4,59.73546579322913,
"First, we'll do a practice. Put your right hand on the keyboard and get ready to respond! When you're ready to start, press space.",Press space to continue!,None,instruction_images/oldBook.png,instruction_images/alpaca_fo.jpg,instruction_images/antlers.jpg,0,0.3,0.0,-0.4, , , , , ,,,,,,,,,,,,,,,,,,,,,,,,,,,,,,,,,,,0,4,4,4,,,,,,,,,,,,,,,,,,,,,,,,,,,,,,,,,,,,,,,,,,,,,,,,,,,,,,,29.03630712197628,None,29.03630712197628,None,space,0.12996382199344225,29.382269470981555,None,29.03630712197628,None,29.03630712197628,None,29.03630712197628,None,29.03630712197628,None,29.03630712197628,None,29.03630712197628,None,29.03630712197628,None,,,,,,,,,,,,,,,,,,,,,,,,,,,,,,,,,,,,,,,,,,,,,,,,,,,,,,,,,,,,,,,,,332,001,,,2020_Sep_05_1758,reactive_intentional_encoding_looped,3.2.4,59.73546579322913,
,,,,,,,,,,,,,,,1,images/giftbow01.png,images/willie_nelson_b.jpg,object-face,images/electricoutlet.png,images/chick.jpg,images/willie_nelson_b.jpg,0,0,practice,,,,,,,,,,,,,,,,,,,,,,,,,,,,,0,0,0,0,,,,,,,,,,,,,,,,,,,,,,,,,,,,,,,,,,,,,,,,,,,,,,,,,,,,,,,,,,,,,,,,,,,,,,,,,30.665650829992956,32.664649214973906,32.664649214973906,33.16518235398689,33.16518235398689,36.166152723977575,33.16518235398689,36.166152723977575,33.16518235398689,36.166152723977575,33.16518235398689,36.166152723977575,33.16518235398689,36.166152723977575,33.16518235398689,36.166152723977575,33.16518235398689,36.166152723977575,36.166152723977575,36.6813954259851,36.66481747399666,None,36.66481747399666,None,30.665650829992956,32.664649214973906,36.66481747399666,None,39.647684130992275,None,,,,,,,,,,,,,,,,,,,,,,,,,,,,,,,,,,,332,001,,,2020_Sep_05_1758,reactive_intentional_encoding_looped,3.2.4,59.73546579322913,
,,,,,,,,,,,,,,,2,images/globe.png,images/earrings_dangling.jpg,object-scene,images/wrigley_field_b.jpg,images/barrel.jpg,images/wrigley_field_b.jpg,0,0,practice,,,,,,,,,,,,,,,,,,,,,,,,,,,,,0,1,1,1,,,,,,,,,,,,,,,,,,,,,,,,,,,,,,,,,,,,,,,,,,,,,,,,,,,,,,,,,,,,,,,,,,,,,,,,,41.18233537298511,43.1821412529971,43.1821412529971,43.68112485698657,43.68112485698657,46.68170763697708,43.68112485698657,46.68170763697708,43.68112485698657,46.68170763697708,43.68112485698657,46.68170763697708,43.68112485698657,46.68170763697708,43.68112485698657,46.68170763697708,43.68112485698657,46.68170763697708,46.68170763697708,47.18156900399481,47.18156900399481,None,47.18156900399481,None,41.18233537298511,43.1821412529971,47.18156900399481,None,50.132403538998915,None,,,,,,,,,,,,,,,,,,,,,,,,,,,,,,,,,,,332,001,,,2020_Sep_05_1758,reactive_intentional_encoding_looped,3.2.4,59.73546579322913,
,,,,,,,,,,,,,,,3,images/glassBall.jpg,images/westminster_abbey_a.jpg,object-scene,images/beetle.png,images/statue_of_liberty.jpg,images/westminster_abbey_a.jpg,0,0,practice,,,,,,,,,,,,,,,,,,,,,,,,,,,,,0,2,2,2,,,,,,,,,,,,,,,,,,,,,,,,,,,,,,,,,,,,,,,,,,,,,,,,,,,,,,,,,,,,,,,,,,,,,,,,,51.715430040989304,53.72890040898346,53.699861992994556,54.21577872699709,54.19786186798592,57.19806716797757,54.19786186798592,57.19806716797757,54.19786186798592,57.19806716797757,54.19786186798592,57.19806716797757,54.19786186798592,57.19806716797757,54.19786186798592,57.19806716797757,54.19786186798592,57.19806716797757,57.19806716797757,57.69768868299434,57.69768868299434,None,57.69768868299434,None,51.715430040989304,53.72890040898346,57.69768868299434,None,60.6313970409974,None,,,,,,,,,,,,,,,,,,,,,,,,,,,,,,,,,,,332,001,,,2020_Sep_05_1758,reactive_intentional_encoding_looped,3.2.4,59.73546579322913,
,,,,,,,,,,,,,,,,,,,,,,,,,,,,,,,,,,,,,,,,,,,,,,,,,,,,,,,,,,,,,,,,,,,,,,,,,,,,,,,,,,,,,,,,,,,,,,,,,,,,,,,,,,,,,,,,,,,,,,,,,,,,,,,,,,,,,,,,,,,,,,,,,,,,,,,,,,,,,,,61.13159181497758,None,space,1.8304514129995368,61.13159181497758,None,,,,,,,,,,,,,,,,,,,,,,,,,,,,,332,001,,,2020_Sep_05_1758,reactive_intentional_encoding_looped,3.2.4,59.73546579322913,
,,,,,,,,,,,,,,,,,images/julia_roberts_c.jpg,,images/freedom_tower_c.jpg,images/dustin_hoffman_a.jpg,images/julia_roberts_c.jpg,,,,,images/mannequin.jpg,,images/newspaper_stack.png,object-face,,1,1,,,,,,,,,,,,,,,,,,,,,,,,,0,0,0,0,,,,,,,,,,,,,,,,,,,,,,,,,,,,,,,,,,,,,,,,,,,,,,,,,,,,,,,,,,,,,,,,,,,,,,,,,,,,,,,,,,,,,,,,,,,,,,,,,73.0111861259793,None,,,,,,,64.0118122479762,66.03227571200114,64.0118122479762,66.03227571200114,66.01150660897838,66.57106662497972,66.53329155300162,69.53170102997683,66.53329155300162,69.53170102997683,66.53329155300162,69.53170102997683,66.53329155300162,69.53170102997683,66.53329155300162,69.53170102997683,66.53329155300162,69.53170102997683,66.53329155300162,69.53170102997683,69.99856760297553,None,69.99856760297553,None,69.51642967399675,70.0318479029811,69.99856760297553,71.99854972597677,332,001,,,2020_Sep_05_1758,reactive_intentional_encoding_looped,3.2.4,59.73546579322913,
,,,,,,,,,,,,,,,,,images/giza_pyramids_c.jpg,,images/fenway_park_a.jpg,images/dolly_parton_c.jpg,images/giza_pyramids_c.jpg,,,,,images/fan.png,,images/pencilCase.png,object-scene,,2,2,,,,,,,,,,,,,,,,,,,,,,,,,0,1,1,1,,,,,,,,,,,,,,,,,,,,,,,,,,,,,,,,,,,,,,,,,,,,,,,,,,,,,,,,,,,,,,,,,,,,,,,,,,,,,,,,,,,,,,,,,,,,,,,,,83.4985133309965,None,,,,,,,74.51083280099556,76.5266586849757,74.51083280099556,76.5266586849757,76.50975700499839,77.06867438097834,77.02689679697505,80.03086466700188,77.02689679697505,80.03086466700188,77.02689679697505,80.03086466700188,77.02689679697505,80.03086466700188,77.02689679697505,80.03086466700188,77.02689679697505,80.03086466700188,77.02689679697505,80.03086466700188,80.4987804129778,None,80.4987804129778,None,80.01740559298196,80.5319050209946,80.4987804129778,82.49885194498347,332,001,,,2020_Sep_05_1758,reactive_intentional_encoding_looped,3.2.4,59.73546579322913,
,,,,,,,,,,,,,,,,,images/eiffel_tower_c.jpg,,images/bellagio_fountains_a.jpg,images/alec_baldwin_a.jpg,images/eiffel_tower_c.jpg,,,,,images/sundae_banana.jpg,,images/mitten.png,object-scene,,3,3,,,,,,,,,,,,,,,,,,,,,,,,,0,2,2,2,,,,,,,,,,,,,,,,,,,,,,,,,,,,,,,,,,,,,,,,,,,,,,,,,,,,,,,,,,,,,,,,,,,,,,,,,,,,,,,,,,,,,,,,,,,,,,,,,93.99261835697689,None,,,,,,,85.00936718698358,87.02578519197414,85.00936718698358,87.02578519197414,87.01125287800096,87.55938243499259,87.51840244198684,90.52547822499764,87.51840244198684,90.52547822499764,87.51840244198684,90.52547822499764,87.51840244198684,90.52547822499764,87.51840244198684,90.52547822499764,87.51840244198684,90.52547822499764,87.51840244198684,90.52547822499764,90.99165383298532,None,90.99165383298532,None,90.52547822499764,91.02564460999565,90.99165383298532,92.99227348697605,332,001,,,2020_Sep_05_1758,reactive_intentional_encoding_looped,3.2.4,59.73546579322913,
,,,,,,,,,,,,,,,,,,,,,,,,,,,,,,,,,,,,,,,,,,,,,,,,,,,,,,,,,,,,,,,,,,,,,,,,,,,,,,,,,,,,,,,,,,,,,,,,,,,,,,,,,,,,,,,,,,,,,,,,,,,,,,,,,,,,,,,,,,,,,,,,,,,,,,,,,,,,,,,,,,,,,95.49719556097989,97.49842975399224,95.49719556097989,97.49842975399224,97.49842975399224,98.02890344298794,98.02890344298794,101.04029793100199,98.02890344298794,101.04029793100199,98.02890344298794,101.04029793100199,98.02890344298794,101.04029793100199,98.02890344298794,101.04029793100199,98.02890344298794,101.04029793100199,98.02890344298794,101.04029793100199,101.49030209198827,None,101.49030209198827,None,101.02430877299048,101.52392105798936,101.49030209198827,103.48998870499781,,,,,,,,,
