instructions1,Instructions2,Image1,Image2,Image3,Image_4,position_1x,position_1y,position_2x,position_2y,J_key,K_key,L_key,yes_text,no_text,Image,image_type,category,trial_number,pair_indicator,instruction_intentional_encoding.thisRepN,instruction_intentional_encoding.thisTrialN,instruction_intentional_encoding.thisN,instruction_intentional_encoding.thisIndex,practice_trials_intentional_encoding.thisRepN,practice_trials_intentional_encoding.thisTrialN,practice_trials_intentional_encoding.thisN,practice_trials_intentional_encoding.thisIndex,trials.thisRepN,trials.thisTrialN,trials.thisN,trials.thisIndex,trials_4.thisRepN,trials_4.thisTrialN,trials_4.thisN,trials_4.thisIndex,trials_2.thisRepN,trials_2.thisTrialN,trials_2.thisN,trials_2.thisIndex,trials_5.thisRepN,trials_5.thisTrialN,trials_5.thisN,trials_5.thisIndex,trials_3.thisRepN,trials_3.thisTrialN,trials_3.thisN,trials_3.thisIndex,trials_6.thisRepN,trials_6.thisTrialN,trials_6.thisN,trials_6.thisIndex,trials_7.thisRepN,trials_7.thisTrialN,trials_7.thisN,trials_7.thisIndex,trials_8.thisRepN,trials_8.thisTrialN,trials_8.thisN,trials_8.thisIndex,trials_9.thisRepN,trials_9.thisTrialN,trials_9.thisN,trials_9.thisIndex,trials_10.thisRepN,trials_10.thisTrialN,trials_10.thisN,trials_10.thisIndex,trials_11.thisRepN,trials_11.thisTrialN,trials_11.thisN,trials_11.thisIndex,trials_12.thisRepN,trials_12.thisTrialN,trials_12.thisN,trials_12.thisIndex,trials_13.thisRepN,trials_13.thisTrialN,trials_13.thisN,trials_13.thisIndex,trials_15.thisRepN,trials_15.thisTrialN,trials_15.thisN,trials_15.thisIndex,trials_18.thisRepN,trials_18.thisTrialN,trials_18.thisN,trials_18.thisIndex,trials_17.thisRepN,trials_17.thisTrialN,trials_17.thisN,trials_17.thisIndex,trials_19.thisRepN,trials_19.thisTrialN,trials_19.thisN,trials_19.thisIndex,trials_20.thisRepN,trials_20.thisTrialN,trials_20.thisN,trials_20.thisIndex,trials_21.thisRepN,trials_21.thisTrialN,trials_21.thisN,trials_21.thisIndex,text_9.started,text_9.stopped,key_resp_3.keys,key_resp_3.rt,key_resp_3.started,key_resp_3.stopped,post_retreival_practice_intructions.started,post_retreival_practice_intructions.stopped,key_resp_4.keys,key_resp_4.rt,key_resp_4.started,key_resp_4.stopped,text_12.started,text_12.stopped,key_resp_6.keys,key_resp_6.rt,key_resp_6.started,key_resp_6.stopped,text_13.started,text_13.stopped,key_resp_7.keys,key_resp_7.rt,key_resp_7.started,key_resp_7.stopped,text_15.started,text_15.stopped,key_resp_8.keys,key_resp_8.rt,key_resp_8.started,key_resp_8.stopped,text_2.started,text_2.stopped,key_resp_14.keys,key_resp_14.rt,key_resp_14.started,key_resp_14.stopped,text_14.started,text_14.stopped,pressspace.started,pressspace.stopped,key_resp_16.keys,key_resp_16.rt,key_resp_16.started,key_resp_16.stopped,image_17.started,image_17.stopped,Jkey.started,Jkey.stopped,F_key.started,F_key.stopped,oldText.started,oldText.stopped,newtext.started,newtext.stopped,text_27.started,text_27.stopped,key_resp_18.keys,key_resp_18.rt,key_resp_18.started,key_resp_18.stopped,image_oldnew.started,image_oldnew.stopped,imageabc.started,imageabc.stopped,key_resp_17.keys,key_resp_17.started,key_resp_17.stopped,Jkey_2.started,Jkey_2.stopped,F_key_2.started,F_key_2.stopped,old.started,old.stopped,newtext_2.started,newtext_2.stopped,fixation_.started,fixation_.stopped,participant,sex,age,,date,expName,psychopyVersion,frameRate,
,,,,,,,,,,,,,,,,,,,,,,,,,,,,,,,,,,,,,,,,,,,,,,,,,,,,,,,,,,,,,,,,,,,,,,,,,,,,,,,,,,,,,,,,,,,,,,,,,,,,,,,,80.616594652005,None,space,0.4438997140096035,81.09724513700348,None,,,,,,,,,,,,,,,,,,,,,,,,,,,,,,,,,,,,,,,,,,,,,,,,,,,,,,,,,,,,,,,,,,,,,,,,345,001,,,2020_Sep_07_1657,reactive_intentional_encoding_looped,3.2.4,59.80387284043377,
,,,,,,,,,,,,,,,,,,,,,,,,,,,,,,,,,,,,,,,,,,,,,,,,,,,,,,,,,,,,,,,,,,,,,,,,,,,,,,,,,,,,,,,,,,,,,,,,,,,,,,,,,,,,,,81.61336995300371,None,space,0.2687678679940291,81.61336995300371,None,,,,,,,,,,,,,,,,,,,,,,,,,,,,,,,,,,,,,,,,,,,,,,,,,,,,,,,,,,,,,,,,,,345,001,,,2020_Sep_07_1657,reactive_intentional_encoding_looped,3.2.4,59.80387284043377,
,,,,,,,,,,,,,,,,,,,,,,,,,,,,,,,,,,,,,,,,,,,,,,,,,,,,,,,,,,,,,,,,,,,,,,,,,,,,,,,,,,,,,,,,,,,,,,,,,,,,,,,,,,,,,,,,,,,,81.94858759600902,None,space,0.018208246008725837,82.16489925500355,None,,,,,,,,,,,,,,,,,,,,,,,,,,,,,,,,,,,,,,,,,,,,,,,,,,,,,,,,,,,,345,001,,,2020_Sep_07_1657,reactive_intentional_encoding_looped,3.2.4,59.80387284043377,
,,,,,,,,,,,,,,,,,,,,,,,,,,,,,,,,,,,,,,,,,,,,,,,,,,,,,,,,,,,,,,,,,,,,,,,,,,,,,,,,,,,,,,,,,,,,,,,,,,,,,,,,,,,,,,,,,,,,,,,,,,82.23352459300077,None,space,0.21971084899269044,82.23352459300077,None,,,,,,,,,,,,,,,,,,,,,,,,,,,,,,,,,,,,,,,,,,,,,,,,,,,,,,345,001,,,2020_Sep_07_1657,reactive_intentional_encoding_looped,3.2.4,59.80387284043377,
,,,,,,,,,,,,,,,,,,,,,,,,,,,,,,,,,,,,,,,,,,,,,,,,,,,,,,,,,,,,,,,,,,,,,,,,,,,,,,,,,,,,,,,,,,,,,,,,,,,,,,,,,,,,,,,,,,,,82.51442241400946,None,space,0.30411895000725053,82.73418200100423,None,,,,,,,,,,,,,,,,,,,,,,,,,,,,,,,,,,,,,,,,,,,,,,,,,,,,,,,,,,,,345,001,,,2020_Sep_07_1657,reactive_intentional_encoding_looped,3.2.4,59.80387284043377,
,,,,,,,,,,,,,,,,,,,,,,,,,,,,,,,,,,,,,,,,,,,,,,,,,,,,,,,,,,,,,,,,,,,,,,,,,,,,,,,,,,,,,,,,,,,,,,,,,,,,,,,,,,,,,,,,,,,,,,,,,,83.07185267101158,None,space,0.24257051601307467,83.07185267101158,None,,,,,,,,,,,,,,,,,,,,,,,,,,,,,,,,,,,,,,,,,,,,,,,,,,,,,,345,001,,,2020_Sep_07_1657,reactive_intentional_encoding_looped,3.2.4,59.80387284043377,
,,,,,,,,,,,,,,,,,,,,,,,,,,,,,,,,,,,,,,,,,,,,,,,,,,,,,,,,,,,,,,,,,,,,,,,,,,,,,,,,,,,,,,,,,,,,,,,,,,,,,,,,,,,,,,,,,,,,83.3654363329988,None,space,0.009059756004717201,83.57998122400022,None,,,,,,,,,,,,,,,,,,,,,,,,,,,,,,,,,,,,,,,,,,,,,,,,,,,,,,,,,,,,345,001,,,2020_Sep_07_1657,reactive_intentional_encoding_looped,3.2.4,59.80387284043377,
,,,,,,,,,,,,,,,,,,,,,,,,,,,,,,,,,,,,,,,,,,,,,,,,,,,,,,,,,,,,,,,,,,,,,,,,,,,,,,,,,,,,,,,,,,,,,,,,,,,,,,,,,,,,,,,,,,,,,,,,,,83.61961106699891,None,space,0.23070451099192724,83.61961106699891,None,,,,,,,,,,,,,,,,,,,,,,,,,,,,,,,,,,,,,,,,,,,,,,,,,,,,,,345,001,,,2020_Sep_07_1657,reactive_intentional_encoding_looped,3.2.4,59.80387284043377,
,,,,,,,,,,,,,,,,,,,,,,,,,,,,,,,,,,,,,,,,,,,,,,,,,,,,,,,,,,,,,,,,,,,,,,,,,,,,,,,,,,,,,,,,,,,,,,,,,,,,,,,,,,,,,,,,,,,,,,,,,,,,,,,,83.8970436519885,None,space,0.22601824899902567,83.8970436519885,None,,,,,,,,,,,,,,,,,,,,,,,,,,,,,,,,,,,,,,,,,,,,,,,,345,001,,,2020_Sep_07_1657,reactive_intentional_encoding_looped,3.2.4,59.80387284043377,
,,,,,,,,,,,,,,,,,,,,,,,,,,,,,,,,,,,,,,,,,,,,,,,,,,,,,,,,,,,,,,,,,,,,,,,,,,,,,,,,,,,,,,,,,,,,,,,,,,,,,,,,,,,,,,,,,,,,,,,,,,,,,,,,,,,,,,84.1823803629959,None,space,0.20190315798390657,84.1823803629959,None,,,,,,,,,,,,,,,,,,,,,,,,,,,,,,,,,,,,,,,,,,345,001,,,2020_Sep_07_1657,reactive_intentional_encoding_looped,3.2.4,59.80387284043377,
"You're now almost finished the task! In the last part, you will do another memory test. You will be shown an image, like below, on each trial. Your job is to indicate whether you have seen this image before. If you have seen the image before, press 'f' to indicate that it is old. If you haven't seen this image before, press 'j' to indicate the image is new.",Press space to continue!,instruction_images/oldBook.png,None,None,None,None,None,None,None,J,F,None,old,new,,,,,,,,,,,,,,,,,,,,,,,,,,,,,,,,,,,,,,,,,,,,,,,,,,,,,,,,,,,,,,,,,,,,,,,,,,,,,,0,0,0,0,,,,,,,,,,,,,,,,,,,,,,,,,,,,,,,,,,,,,,,,,,,,,84.59906229100307,None,84.59906229100307,None,space,0.06449350601178594,84.59906229100307,None,84.59906229100307,None,84.59906229100307,None,84.59906229100307,None,84.59906229100307,None,84.59906229100307,None,,,,,,,,,,,,,,,,,,,,,,,,345,001,,,2020_Sep_07_1657,reactive_intentional_encoding_looped,3.2.4,59.80387284043377,
"Since you have seen the book before, you should select 'f' to indicate the book is old.",Press space to continue!,instruction_images/oldBook.png,None,None,None,None,None,None,None,J,F,None,old,new,,,,,,,,,,,,,,,,,,,,,,,,,,,,,,,,,,,,,,,,,,,,,,,,,,,,,,,,,,,,,,,,,,,,,,,,,,,,,,0,1,1,1,,,,,,,,,,,,,,,,,,,,,,,,,,,,,,,,,,,,,,,,,,,,,84.70595736100222,None,84.70595736100222,None,space,0.21615351299988106,84.70595736100222,None,84.70595736100222,None,84.70595736100222,None,84.70595736100222,None,84.70595736100222,None,84.70595736100222,None,,,,,,,,,,,,,,,,,,,,,,,,345,001,,,2020_Sep_07_1657,reactive_intentional_encoding_looped,3.2.4,59.80387284043377,
This test is timed. You have a limit of 2 seconds to respond. So try to respond as quickly as possible.,Press space to continue!,instruction_images/oldBook.png,None,None,None,None,None,None,None,J,F,None,old,new,,,,,,,,,,,,,,,,,,,,,,,,,,,,,,,,,,,,,,,,,,,,,,,,,,,,,,,,,,,,,,,,,,,,,,,,,,,,,,0,2,2,2,,,,,,,,,,,,,,,,,,,,,,,,,,,,,,,,,,,,,,,,,,,,,84.98022681698785,None,84.98022681698785,None,space,0.21980846297810785,84.98022681698785,None,84.98022681698785,None,84.98022681698785,None,84.98022681698785,None,84.98022681698785,None,84.98022681698785,None,,,,,,,,,,,,,,,,,,,,,,,,345,001,,,2020_Sep_07_1657,reactive_intentional_encoding_looped,3.2.4,59.80387284043377,
"First we will do a practice. When you’re ready to start the practice, press the space bar. ",Press space to continue!,instruction_images/oldBook.png,None,None,None,None,None,None,None,J,F,None,old,new,,,,,,,,,,,,,,,,,,,,,,,,,,,,,,,,,,,,,,,,,,,,,,,,,,,,,,,,,,,,,,,,,,,,,,,,,,,,,,0,3,3,3,,,,,,,,,,,,,,,,,,,,,,,,,,,,,,,,,,,,,,,,,,,,,85.26412111800164,None,85.26412111800164,None,space,0.21627052000258118,85.26412111800164,None,85.26412111800164,None,85.26412111800164,None,85.26412111800164,None,85.26412111800164,None,85.26412111800164,None,,,,,,,,,,,,,,,,,,,,,,,,345,001,,,2020_Sep_07_1657,reactive_intentional_encoding_looped,3.2.4,59.80387284043377,
None,Press space to continue!,instruction_images/oldBook.png,None,None,None,None,None,None,None,J,F,None,old,new,,,,,,,,,,,,,,,,,,,,,,,,,,,,,,,,,,,,,,,,,,,,,,,,,,,,,,,,,,,,,,,,,,,,,,,,,,,,,,0,4,4,4,,,,,,,,,,,,,,,,,,,,,,,,,,,,,,,,,,,,,,,,,,,,,85.52194726798916,None,85.52194726798916,None,space,0.21825290299602784,85.52194726798916,None,85.52194726798916,None,85.52194726798916,None,85.52194726798916,None,85.52194726798916,None,85.52194726798916,None,,,,,,,,,,,,,,,,,,,,,,,,345,001,,,2020_Sep_07_1657,reactive_intentional_encoding_looped,3.2.4,59.80387284043377,
,,,,,,,,,,,,,,,,,,,,,,,,,,,,,,,,,,,,,,,,,,,,,,,,,,,,,,,,,,,,,,,,,,,,,,,,,,,,,,,,,,,,,,,,,,,,,,,,,,,,,,,,,,,,,,,,,,,,,,,,,,,,,,,,,,,,,,,,,,,,,,,,,,,,,,,,,,,,,,85.78429286798928,None,space,0.24870128897600807,85.78429286798928,None,,,,,,,,,,,,,,,,,,345,001,,,2020_Sep_07_1657,reactive_intentional_encoding_looped,3.2.4,59.80387284043377,
,,,,,,,,,,,,,,,images/quartz.png,A,object ,1,None,,,,,,,,,,,,,,,,,,,,,,,,,,,,,,,,,,,,,,,,,,,,,,,,,,,,,,,,,,,,,,,,,,,,,,,,,,,,,,,,,0,0,0,0,,,,,,,,,,,,,,,,,,,,,,,,,,,,,,,,,,,,,,,,,,,,,,,,,,,,,,,,,,,,,85.78429286798928,None,86.11424614000134,None,None,86.11424614000134,None,86.11424614000134,None,86.11424614000134,None,86.11424614000134,None,86.11424614000134,None,88.07085775601445,None,345,001,,,2020_Sep_07_1657,reactive_intentional_encoding_looped,3.2.4,59.80387284043377,
,,,,,,,,,,,,,,,images/feather.png,A,object ,2,None,,,,,,,,,,,,,,,,,,,,,,,,,,,,,,,,,,,,,,,,,,,,,,,,,,,,,,,,,,,,,,,,,,,,,,,,,,,,,,,,,0,1,1,1,,,,,,,,,,,,,,,,,,,,,,,,,,,,,,,,,,,,,,,,,,,,,,,,,,,,,,,,,,,,,,,88.58065909700235,None,None,88.58065909700235,None,88.58065909700235,None,88.58065909700235,None,88.58065909700235,None,88.58065909700235,None,90.58079437800916,None,345,001,,,2020_Sep_07_1657,reactive_intentional_encoding_looped,3.2.4,59.80387284043377,
,,,,,,,,,,,,,,,images/mannequin.jpg,A,object ,3,None,,,,,,,,,,,,,,,,,,,,,,,,,,,,,,,,,,,,,,,,,,,,,,,,,,,,,,,,,,,,,,,,,,,,,,,,,,,,,,,,,0,2,2,2,,,,,,,,,,,,,,,,,,,,,,,,,,,,,,,,,,,,,,,,,,,,,,,,,,,,,,,,,,,,,,,91.09699301299406,None,None,91.09699301299406,None,91.09699301299406,None,91.09699301299406,None,91.09699301299406,None,91.09699301299406,None,93.0805258229957,None,345,001,,,2020_Sep_07_1657,reactive_intentional_encoding_looped,3.2.4,59.80387284043377,
,,,,,,,,,,,,,,,images/westminster_bbbey_b.jpg,new,scene,4,None,,,,,,,,,,,,,,,,,,,,,,,,,,,,,,,,,,,,,,,,,,,,,,,,,,,,,,,,,,,,,,,,,,,,,,,,,,,,,,,,,0,3,3,3,,,,,,,,,,,,,,,,,,,,,,,,,,,,,,,,,,,,,,,,,,,,,,,,,,,,,,,,,,,,,,,93.5805246749951,None,None,93.5805246749951,None,93.5805246749951,None,93.5805246749951,None,93.5805246749951,None,93.5805246749951,None,95.56424246399547,None,345,001,,,2020_Sep_07_1657,reactive_intentional_encoding_looped,3.2.4,59.80387284043377,
,,,,,,,,,,,,,,,images/outhouse.png,C,object ,5,direct,,,,,,,,,,,,,,,,,,,,,,,,,,,,,,,,,,,,,,,,,,,,,,,,,,,,,,,,,,,,,,,,,,,,,,,,,,,,,,,,,0,4,4,4,,,,,,,,,,,,,,,,,,,,,,,,,,,,,,,,,,,,,,,,,,,,,,,,,,,,,,,,,,,,,,,96.08036629398703,None,None,96.08036629398703,None,96.08036629398703,None,96.08036629398703,None,96.08036629398703,None,96.08036629398703,None,98.06602843801375,None,345,001,,,2020_Sep_07_1657,reactive_intentional_encoding_looped,3.2.4,59.80387284043377,
,,,,,,,,,,,,,,,images/neil_patrick_harris.jpg,B,face,6,direct,,,,,,,,,,,,,,,,,,,,,,,,,,,,,,,,,,,,,,,,,,,,,,,,,,,,,,,,,,,,,,,,,,,,,,,,,,,,,,,,,0,5,5,5,,,,,,,,,,,,,,,,,,,,,,,,,,,,,,,,,,,,,,,,,,,,,,,,,,,,,,,,,,,,,,,98.59736697201151,None,None,98.59736697201151,None,98.59736697201151,None,98.59736697201151,None,98.59736697201151,None,98.59736697201151,None,100.58004859799985,None,345,001,,,2020_Sep_07_1657,reactive_intentional_encoding_looped,3.2.4,59.80387284043377,
,,,,,,,,,,,,,,,images/martin_scorsese_a.jpg,new,face,7,None,,,,,,,,,,,,,,,,,,,,,,,,,,,,,,,,,,,,,,,,,,,,,,,,,,,,,,,,,,,,,,,,,,,,,,,,,,,,,,,,,0,6,6,6,,,,,,,,,,,,,,,,,,,,,,,,,,,,,,,,,,,,,,,,,,,,,,,,,,,,,,,,,,,,,,,101.06942545401398,None,None,101.06942545401398,None,101.06942545401398,None,101.06942545401398,None,101.06942545401398,None,101.06942545401398,None,103.08041787700495,None,345,001,,,2020_Sep_07_1657,reactive_intentional_encoding_looped,3.2.4,59.80387284043377,
,,,,,,,,,,,,,,,images/microwave.png,C,object ,8,direct,,,,,,,,,,,,,,,,,,,,,,,,,,,,,,,,,,,,,,,,,,,,,,,,,,,,,,,,,,,,,,,,,,,,,,,,,,,,,,,,,0,7,7,7,,,,,,,,,,,,,,,,,,,,,,,,,,,,,,,,,,,,,,,,,,,,,,,,,,,,,,,,,,,,,,,103.5851412799966,None,None,103.5851412799966,None,103.5851412799966,None,103.5851412799966,None,103.5851412799966,None,103.5851412799966,None,105.5642836370098,None,345,001,,,2020_Sep_07_1657,reactive_intentional_encoding_looped,3.2.4,59.80387284043377,
,,,,,,,,,,,,,,,images/empire_state_building_a.jpg,B,scene,9,direct,,,,,,,,,,,,,,,,,,,,,,,,,,,,,,,,,,,,,,,,,,,,,,,,,,,,,,,,,,,,,,,,,,,,,,,,,,,,,,,,,0,8,8,8,,,,,,,,,,,,,,,,,,,,,,,,,,,,,,,,,,,,,,,,,,,,,,,,,,,,,,,,,,,,,,,106.09674817000632,None,None,106.09674817000632,None,106.09674817000632,None,106.09674817000632,None,106.09674817000632,None,106.09674817000632,None,108.06409805599833,None,345,001,,,2020_Sep_07_1657,reactive_intentional_encoding_looped,3.2.4,59.80387284043377,
,,,,,,,,,,,,,,,images/pylonTraffic.jpg,new,object ,10,None,,,,,,,,,,,,,,,,,,,,,,,,,,,,,,,,,,,,,,,,,,,,,,,,,,,,,,,,,,,,,,,,,,,,,,,,,,,,,,,,,0,9,9,9,,,,,,,,,,,,,,,,,,,,,,,,,,,,,,,,,,,,,,,,,,,,,,,,,,,,,,,,,,,,,,,108.58255369999097,None,None,108.58255369999097,None,108.58255369999097,None,108.58255369999097,None,108.58255369999097,None,108.58255369999097,None,110.56411922699772,None,345,001,,,2020_Sep_07_1657,reactive_intentional_encoding_looped,3.2.4,59.80387284043377,
,,,,,,,,,,,,,,,images/qtip.png,new,object ,11,None,,,,,,,,,,,,,,,,,,,,,,,,,,,,,,,,,,,,,,,,,,,,,,,,,,,,,,,,,,,,,,,,,,,,,,,,,,,,,,,,,0,10,10,10,,,,,,,,,,,,,,,,,,,,,,,,,,,,,,,,,,,,,,,,,,,,,,,,,,,,,,,,,,,,,,,111.08065513099427,None,None,111.08065513099427,None,111.08065513099427,None,111.08065513099427,None,111.08065513099427,None,111.08065513099427,None,113.08070610600407,None,345,001,,,2020_Sep_07_1657,reactive_intentional_encoding_looped,3.2.4,59.80387284043377,
,,,,,,,,,,,,,,,images/washington_monument_a.jpg,new,scene,12,None,,,,,,,,,,,,,,,,,,,,,,,,,,,,,,,,,,,,,,,,,,,,,,,,,,,,,,,,,,,,,,,,,,,,,,,,,,,,,,,,,0,11,11,11,,,,,,,,,,,,,,,,,,,,,,,,,,,,,,,,,,,,,,,,,,,,,,,,,,,,,,,,,,,,,,,113.61349126900313,None,None,113.61349126900313,None,113.61349126900313,None,113.61349126900313,None,113.61349126900313,None,113.61349126900313,None,115.5805739100033,None,345,001,,,2020_Sep_07_1657,reactive_intentional_encoding_looped,3.2.4,59.80387284043377,
,,,,,,,,,,,,,,,images/puzzlepiece.png,A,object ,13,None,,,,,,,,,,,,,,,,,,,,,,,,,,,,,,,,,,,,,,,,,,,,,,,,,,,,,,,,,,,,,,,,,,,,,,,,,,,,,,,,,0,12,12,12,,,,,,,,,,,,,,,,,,,,,,,,,,,,,,,,,,,,,,,,,,,,,,,,,,,,,,,,,,,,,,,116.0973704700009,None,None,116.0973704700009,None,116.0973704700009,None,116.0973704700009,None,116.0973704700009,None,116.0973704700009,None,118.08052201100509,None,345,001,,,2020_Sep_07_1657,reactive_intentional_encoding_looped,3.2.4,59.80387284043377,
,,,,,,,,,,,,,,,images/newspaper_stack.png,C,object ,14,direct,,,,,,,,,,,,,,,,,,,,,,,,,,,,,,,,,,,,,,,,,,,,,,,,,,,,,,,,,,,,,,,,,,,,,,,,,,,,,,,,,0,13,13,13,,,,,,,,,,,,,,,,,,,,,,,,,,,,,,,,,,,,,,,,,,,,,,,,,,,,,,,,,,,,,,,118.61339683600818,None,None,118.61339683600818,None,118.61339683600818,None,118.61339683600818,None,118.61339683600818,None,118.61339683600818,None,120.5802591709944,None,345,001,,,2020_Sep_07_1657,reactive_intentional_encoding_looped,3.2.4,59.80387284043377,
,,,,,,,,,,,,,,,images/james_franco_c.jpg,B,face,15,direct,,,,,,,,,,,,,,,,,,,,,,,,,,,,,,,,,,,,,,,,,,,,,,,,,,,,,,,,,,,,,,,,,,,,,,,,,,,,,,,,,0,14,14,14,,,,,,,,,,,,,,,,,,,,,,,,,,,,,,,,,,,,,,,,,,,,,,,,,,,,,,,,,,,,,,,121.09641727400594,None,None,121.09641727400594,None,121.09641727400594,None,121.09641727400594,None,121.09641727400594,None,121.09641727400594,None,123.08030232400051,None,345,001,,,2020_Sep_07_1657,reactive_intentional_encoding_looped,3.2.4,59.80387284043377,
,,,,,,,,,,,,,,,images/donutFloaty.jpg,A,object ,16,None,,,,,,,,,,,,,,,,,,,,,,,,,,,,,,,,,,,,,,,,,,,,,,,,,,,,,,,,,,,,,,,,,,,,,,,,,,,,,,,,,0,15,15,15,,,,,,,,,,,,,,,,,,,,,,,,,,,,,,,,,,,,,,,,,,,,,,,,,,,,,,,,,,,,,,,123.59983517898945,None,None,123.59983517898945,None,123.59983517898945,None,123.59983517898945,None,123.59983517898945,None,123.59983517898945,None,125.5792428900022,None,345,001,,,2020_Sep_07_1657,reactive_intentional_encoding_looped,3.2.4,59.80387284043377,
,,,,,,,,,,,,,,,images/lotus_temple_a.jpg,new,scene,17,None,,,,,,,,,,,,,,,,,,,,,,,,,,,,,,,,,,,,,,,,,,,,,,,,,,,,,,,,,,,,,,,,,,,,,,,,,,,,,,,,,0,16,16,16,,,,,,,,,,,,,,,,,,,,,,,,,,,,,,,,,,,,,,,,,,,,,,,,,,,,,,,,,,,,,,,126.09678769801394,None,None,126.09678769801394,None,126.09678769801394,None,126.09678769801394,None,126.09678769801394,None,126.09678769801394,None,128.08021159900818,None,345,001,,,2020_Sep_07_1657,reactive_intentional_encoding_looped,3.2.4,59.80387284043377,
,,,,,,,,,,,,,,,images/antlerheadband.png,new,object ,18,None,,,,,,,,,,,,,,,,,,,,,,,,,,,,,,,,,,,,,,,,,,,,,,,,,,,,,,,,,,,,,,,,,,,,,,,,,,,,,,,,,0,17,17,17,,,,,,,,,,,,,,,,,,,,,,,,,,,,,,,,,,,,,,,,,,,,,,,,,,,,,,,,,,,,,,,128.5965092589904,None,None,128.5965092589904,None,128.5965092589904,None,128.5965092589904,None,128.5965092589904,None,128.5965092589904,None,130.57902190298773,None,345,001,,,2020_Sep_07_1657,reactive_intentional_encoding_looped,3.2.4,59.80387284043377,
,,,,,,,,,,,,,,,images/champagne.jpg,A,object ,19,None,,,,,,,,,,,,,,,,,,,,,,,,,,,,,,,,,,,,,,,,,,,,,,,,,,,,,,,,,,,,,,,,,,,,,,,,,,,,,,,,,0,18,18,18,,,,,,,,,,,,,,,,,,,,,,,,,,,,,,,,,,,,,,,,,,,,,,,,,,,,,,,,,,,,,,,131.09584666701267,None,None,131.09584666701267,None,131.09584666701267,None,131.09584666701267,None,131.09584666701267,None,131.09584666701267,None,133.079085194011,None,345,001,,,2020_Sep_07_1657,reactive_intentional_encoding_looped,3.2.4,59.80387284043377,
,,,,,,,,,,,,,,,images/bag_gift.png,A,object ,20,None,,,,,,,,,,,,,,,,,,,,,,,,,,,,,,,,,,,,,,,,,,,,,,,,,,,,,,,,,,,,,,,,,,,,,,,,,,,,,,,,,0,19,19,19,,,,,,,,,,,,,,,,,,,,,,,,,,,,,,,,,,,,,,,,,,,,,,,,,,,,,,,,,,,,,,,133.61206787801348,None,None,133.61206787801348,None,133.61206787801348,None,133.61206787801348,None,133.61206787801348,None,133.61206787801348,None,135.58052877199952,None,345,001,,,2020_Sep_07_1657,reactive_intentional_encoding_looped,3.2.4,59.80387284043377,
,,,,,,,,,,,,,,,images/trafalgar_square_a.jpg,new,scene,21,None,,,,,,,,,,,,,,,,,,,,,,,,,,,,,,,,,,,,,,,,,,,,,,,,,,,,,,,,,,,,,,,,,,,,,,,,,,,,,,,,,0,20,20,20,,,,,,,,,,,,,,,,,,,,,,,,,,,,,,,,,,,,,,,,,,,,,,,,,,,,,,,,,,,,,,,136.09559452699614,None,None,136.09559452699614,None,136.09559452699614,None,136.09559452699614,None,136.09559452699614,None,136.09559452699614,None,138.08050170799834,None,345,001,,,2020_Sep_07_1657,reactive_intentional_encoding_looped,3.2.4,59.80387284043377,
,,,,,,,,,,,,,,,images/kirsten_dunst_a.jpg,new,face,22,None,,,,,,,,,,,,,,,,,,,,,,,,,,,,,,,,,,,,,,,,,,,,,,,,,,,,,,,,,,,,,,,,,,,,,,,,,,,,,,,,,0,21,21,21,,,,,,,,,,,,,,,,,,,,,,,,,,,,,,,,,,,,,,,,,,,,,,,,,,,,,,,,,,,,,,,138.59577890799847,None,None,138.59577890799847,None,138.59577890799847,None,138.59577890799847,None,138.59577890799847,None,138.59577890799847,None,140.57906358200125,None,345,001,,,2020_Sep_07_1657,reactive_intentional_encoding_looped,3.2.4,59.80387284043377,
,,,,,,,,,,,,,,,images/pajamas.png,C,object ,23,direct,,,,,,,,,,,,,,,,,,,,,,,,,,,,,,,,,,,,,,,,,,,,,,,,,,,,,,,,,,,,,,,,,,,,,,,,,,,,,,,,,0,22,22,22,,,,,,,,,,,,,,,,,,,,,,,,,,,,,,,,,,,,,,,,,,,,,,,,,,,,,,,,,,,,,,,141.1109809059999,None,None,141.1109809059999,None,141.1109809059999,None,141.1109809059999,None,141.1109809059999,None,141.1109809059999,None,143.07941216800828,None,345,001,,,2020_Sep_07_1657,reactive_intentional_encoding_looped,3.2.4,59.80387284043377,
,,,,,,,,,,,,,,,images/machu_picchu_c.jpg,B,scene,24,direct,,,,,,,,,,,,,,,,,,,,,,,,,,,,,,,,,,,,,,,,,,,,,,,,,,,,,,,,,,,,,,,,,,,,,,,,,,,,,,,,,0,23,23,23,,,,,,,,,,,,,,,,,,,,,,,,,,,,,,,,,,,,,,,,,,,,,,,,,,,,,,,,,,,,,,,143.57873032899806,None,None,143.57873032899806,None,143.57873032899806,None,143.57873032899806,None,143.57873032899806,None,143.57873032899806,None,145.5789448620053,None,345,001,,,2020_Sep_07_1657,reactive_intentional_encoding_looped,3.2.4,59.80387284043377,
,,,,,,,,,,,,,,,images/mop.png,C,object ,25,indirect,,,,,,,,,,,,,,,,,,,,,,,,,,,,,,,,,,,,,,,,,,,,,,,,,,,,,,,,,,,,,,,,,,,,,,,,,,,,,,,,,0,24,24,24,,,,,,,,,,,,,,,,,,,,,,,,,,,,,,,,,,,,,,,,,,,,,,,,,,,,,,,,,,,,,,,146.11122805799823,None,None,146.11122805799823,None,146.11122805799823,None,146.11122805799823,None,146.11122805799823,None,146.11122805799823,None,148.07959216699237,None,345,001,,,2020_Sep_07_1657,reactive_intentional_encoding_looped,3.2.4,59.80387284043377,
,,,,,,,,,,,,,,,images/golden_gate_bridge_b.jpg,B,scene,26,indirect,,,,,,,,,,,,,,,,,,,,,,,,,,,,,,,,,,,,,,,,,,,,,,,,,,,,,,,,,,,,,,,,,,,,,,,,,,,,,,,,,0,25,25,25,,,,,,,,,,,,,,,,,,,,,,,,,,,,,,,,,,,,,,,,,,,,,,,,,,,,,,,,,,,,,,,148.59304495199467,None,None,148.59304495199467,None,148.59304495199467,None,148.59304495199467,None,148.59304495199467,None,148.59304495199467,None,150.57923561599455,None,345,001,,,2020_Sep_07_1657,reactive_intentional_encoding_looped,3.2.4,59.80387284043377,
,,,,,,,,,,,,,,,images/ozzy_osbourne_a.jpg,new,face,27,None,,,,,,,,,,,,,,,,,,,,,,,,,,,,,,,,,,,,,,,,,,,,,,,,,,,,,,,,,,,,,,,,,,,,,,,,,,,,,,,,,0,26,26,26,,,,,,,,,,,,,,,,,,,,,,,,,,,,,,,,,,,,,,,,,,,,,,,,,,,,,,,,,,,,,,,151.09337037199293,None,None,151.09337037199293,None,151.09337037199293,None,151.09337037199293,None,151.09337037199293,None,151.09337037199293,None,153.07938769401517,None,345,001,,,2020_Sep_07_1657,reactive_intentional_encoding_looped,3.2.4,59.80387284043377,
,,,,,,,,,,,,,,,images/rollerblade.png,new,object ,28,None,,,,,,,,,,,,,,,,,,,,,,,,,,,,,,,,,,,,,,,,,,,,,,,,,,,,,,,,,,,,,,,,,,,,,,,,,,,,,,,,,0,27,27,27,,,,,,,,,,,,,,,,,,,,,,,,,,,,,,,,,,,,,,,,,,,,,,,,,,,,,,,,,,,,,,,153.60960548001458,None,None,153.60960548001458,None,153.60960548001458,None,153.60960548001458,None,153.60960548001458,None,153.60960548001458,None,155.5795767189993,None,345,001,,,2020_Sep_07_1657,reactive_intentional_encoding_looped,3.2.4,59.80387284043377,
,,,,,,,,,,,,,,,images/motorcycle.png,C,object ,29,indirect,,,,,,,,,,,,,,,,,,,,,,,,,,,,,,,,,,,,,,,,,,,,,,,,,,,,,,,,,,,,,,,,,,,,,,,,,,,,,,,,,0,28,28,28,,,,,,,,,,,,,,,,,,,,,,,,,,,,,,,,,,,,,,,,,,,,,,,,,,,,,,,,,,,,,,,156.10028627401334,None,None,156.10028627401334,None,156.10028627401334,None,156.10028627401334,None,156.10028627401334,None,156.10028627401334,None,158.0798636119871,None,345,001,,,2020_Sep_07_1657,reactive_intentional_encoding_looped,3.2.4,59.80387284043377,
,,,,,,,,,,,,,,,images/serengeti_c.jpg,B,scene,30,indirect,,,,,,,,,,,,,,,,,,,,,,,,,,,,,,,,,,,,,,,,,,,,,,,,,,,,,,,,,,,,,,,,,,,,,,,,,,,,,,,,,0,29,29,29,,,,,,,,,,,,,,,,,,,,,,,,,,,,,,,,,,,,,,,,,,,,,,,,,,,,,,,,,,,,,,,158.60884540199186,None,None,158.60884540199186,None,158.60884540199186,None,158.60884540199186,None,158.60884540199186,None,158.60884540199186,None,160.5959947379888,None,345,001,,,2020_Sep_07_1657,reactive_intentional_encoding_looped,3.2.4,59.80387284043377,
,,,,,,,,,,,,,,,images/chest_toys.png,A,object ,31,None,,,,,,,,,,,,,,,,,,,,,,,,,,,,,,,,,,,,,,,,,,,,,,,,,,,,,,,,,,,,,,,,,,,,,,,,,,,,,,,,,0,30,30,30,,,,,,,,,,,,,,,,,,,,,,,,,,,,,,,,,,,,,,,,,,,,,,,,,,,,,,,,,,,,,,,161.09866711500217,None,None,161.09866711500217,None,161.09866711500217,None,161.09866711500217,None,161.09866711500217,None,161.09866711500217,None,163.09651021799073,None,345,001,,,2020_Sep_07_1657,reactive_intentional_encoding_looped,3.2.4,59.80387284043377,
,,,,,,,,,,,,,,,images/razor.png,new,object ,32,None,,,,,,,,,,,,,,,,,,,,,,,,,,,,,,,,,,,,,,,,,,,,,,,,,,,,,,,,,,,,,,,,,,,,,,,,,,,,,,,,,0,31,31,31,,,,,,,,,,,,,,,,,,,,,,,,,,,,,,,,,,,,,,,,,,,,,,,,,,,,,,,,,,,,,,,163.59639462901396,None,None,163.59639462901396,None,163.59639462901396,None,163.59639462901396,None,163.59639462901396,None,163.59639462901396,None,165.59619826599373,None,345,001,,,2020_Sep_07_1657,reactive_intentional_encoding_looped,3.2.4,59.80387284043377,
,,,,,,,,,,,,,,,images/st_basils_a.jpg,new,scene,33,None,,,,,,,,,,,,,,,,,,,,,,,,,,,,,,,,,,,,,,,,,,,,,,,,,,,,,,,,,,,,,,,,,,,,,,,,,,,,,,,,,0,32,32,32,,,,,,,,,,,,,,,,,,,,,,,,,,,,,,,,,,,,,,,,,,,,,,,,,,,,,,,,,,,,,,,166.09235996499774,None,None,166.09235996499774,None,166.09235996499774,None,166.09235996499774,None,166.09235996499774,None,166.09235996499774,None,168.07401659499737,None,345,001,,,2020_Sep_07_1657,reactive_intentional_encoding_looped,3.2.4,59.80387284043377,
,,,,,,,,,,,,,,,images/balloon.jpg,A,object ,34,None,,,,,,,,,,,,,,,,,,,,,,,,,,,,,,,,,,,,,,,,,,,,,,,,,,,,,,,,,,,,,,,,,,,,,,,,,,,,,,,,,0,33,33,33,,,,,,,,,,,,,,,,,,,,,,,,,,,,,,,,,,,,,,,,,,,,,,,,,,,,,,,,,,,,,,,168.5837097830081,None,None,168.5837097830081,None,168.5837097830081,None,168.5837097830081,None,168.5837097830081,None,168.5837097830081,None,170.56448938700487,None,345,001,,,2020_Sep_07_1657,reactive_intentional_encoding_looped,3.2.4,59.80387284043377,
,,,,,,,,,,,,,,,images/pentagon_a.jpg,new,scene,35,None,,,,,,,,,,,,,,,,,,,,,,,,,,,,,,,,,,,,,,,,,,,,,,,,,,,,,,,,,,,,,,,,,,,,,,,,,,,,,,,,,0,34,34,34,,,,,,,,,,,,,,,,,,,,,,,,,,,,,,,,,,,,,,,,,,,,,,,,,,,,,,,,,,,,,,,171.07786050700815,None,None,171.07786050700815,None,171.07786050700815,None,171.07786050700815,None,171.07786050700815,None,171.07786050700815,None,173.07458354099072,None,345,001,,,2020_Sep_07_1657,reactive_intentional_encoding_looped,3.2.4,59.80387284043377,
,,,,,,,,,,,,,,,images/puppettheatre.png,new,object ,36,None,,,,,,,,,,,,,,,,,,,,,,,,,,,,,,,,,,,,,,,,,,,,,,,,,,,,,,,,,,,,,,,,,,,,,,,,,,,,,,,,,0,35,35,35,,,,,,,,,,,,,,,,,,,,,,,,,,,,,,,,,,,,,,,,,,,,,,,,,,,,,,,,,,,,,,,173.59422425500816,None,None,173.59422425500816,None,173.59422425500816,None,173.59422425500816,None,173.59422425500816,None,173.59422425500816,None,175.5733443009958,None,345,001,,,2020_Sep_07_1657,reactive_intentional_encoding_looped,3.2.4,59.80387284043377,
,,,,,,,,,,,,,,,images/glasses_sun.png,A,object ,37,None,,,,,,,,,,,,,,,,,,,,,,,,,,,,,,,,,,,,,,,,,,,,,,,,,,,,,,,,,,,,,,,,,,,,,,,,,,,,,,,,,0,36,36,36,,,,,,,,,,,,,,,,,,,,,,,,,,,,,,,,,,,,,,,,,,,,,,,,,,,,,,,,,,,,,,,176.0844865209947,None,None,176.0844865209947,None,176.0844865209947,None,176.0844865209947,None,176.0844865209947,None,176.0844865209947,None,178.07922320099897,None,345,001,,,2020_Sep_07_1657,reactive_intentional_encoding_looped,3.2.4,59.80387284043377,
,,,,,,,,,,,,,,,images/meg_ryan_b.jpg,new,face,38,None,,,,,,,,,,,,,,,,,,,,,,,,,,,,,,,,,,,,,,,,,,,,,,,,,,,,,,,,,,,,,,,,,,,,,,,,,,,,,,,,,0,37,37,37,,,,,,,,,,,,,,,,,,,,,,,,,,,,,,,,,,,,,,,,,,,,,,,,,,,,,,,,,,,,,,,178.59405943000456,None,None,178.59405943000456,None,178.59405943000456,None,178.59405943000456,None,178.59405943000456,None,178.59405943000456,None,180.5795983110147,None,345,001,,,2020_Sep_07_1657,reactive_intentional_encoding_looped,3.2.4,59.80387284043377,
,,,,,,,,,,,,,,,images/origamiPaper.png,C,object ,39,direct,,,,,,,,,,,,,,,,,,,,,,,,,,,,,,,,,,,,,,,,,,,,,,,,,,,,,,,,,,,,,,,,,,,,,,,,,,,,,,,,,0,38,38,38,,,,,,,,,,,,,,,,,,,,,,,,,,,,,,,,,,,,,,,,,,,,,,,,,,,,,,,,,,,,,,,181.09569166001165,None,None,181.09569166001165,None,181.09569166001165,None,181.09569166001165,None,181.09569166001165,None,181.09569166001165,None,183.0794839200098,None,345,001,,,2020_Sep_07_1657,reactive_intentional_encoding_looped,3.2.4,59.80387284043377,
,,,,,,,,,,,,,,,images/stonehenge_b.jpg,B,scene,40,direct,,,,,,,,,,,,,,,,,,,,,,,,,,,,,,,,,,,,,,,,,,,,,,,,,,,,,,,,,,,,,,,,,,,,,,,,,,,,,,,,,0,39,39,39,,,,,,,,,,,,,,,,,,,,,,,,,,,,,,,,,,,,,,,,,,,,,,,,,,,,,,,,,,,,,,,183.59400595299667,None,None,183.59400595299667,None,183.59400595299667,None,183.59400595299667,None,183.59400595299667,None,183.59400595299667,None,185.57352561398875,None,345,001,,,2020_Sep_07_1657,reactive_intentional_encoding_looped,3.2.4,59.80387284043377,
,,,,,,,,,,,,,,,images/diving_board.jpg,A,object ,41,None,,,,,,,,,,,,,,,,,,,,,,,,,,,,,,,,,,,,,,,,,,,,,,,,,,,,,,,,,,,,,,,,,,,,,,,,,,,,,,,,,0,40,40,40,,,,,,,,,,,,,,,,,,,,,,,,,,,,,,,,,,,,,,,,,,,,,,,,,,,,,,,,,,,,,,,186.08340336199035,None,None,186.08340336199035,None,186.08340336199035,None,186.08340336199035,None,186.08340336199035,None,186.08340336199035,None,188.07949531599297,None,345,001,,,2020_Sep_07_1657,reactive_intentional_encoding_looped,3.2.4,59.80387284043377,
,,,,,,,,,,,,,,,images/oven.png,C,object ,42,indirect,,,,,,,,,,,,,,,,,,,,,,,,,,,,,,,,,,,,,,,,,,,,,,,,,,,,,,,,,,,,,,,,,,,,,,,,,,,,,,,,,0,41,41,41,,,,,,,,,,,,,,,,,,,,,,,,,,,,,,,,,,,,,,,,,,,,,,,,,,,,,,,,,,,,,,,188.59594160801498,None,None,188.59594160801498,None,188.59594160801498,None,188.59594160801498,None,188.59594160801498,None,188.59594160801498,None,190.57954463499482,None,345,001,,,2020_Sep_07_1657,reactive_intentional_encoding_looped,3.2.4,59.80387284043377,
,,,,,,,,,,,,,,,images/emma_stone.jpg,B,face,43,indirect,,,,,,,,,,,,,,,,,,,,,,,,,,,,,,,,,,,,,,,,,,,,,,,,,,,,,,,,,,,,,,,,,,,,,,,,,,,,,,,,,0,42,42,42,,,,,,,,,,,,,,,,,,,,,,,,,,,,,,,,,,,,,,,,,,,,,,,,,,,,,,,,,,,,,,,191.10070819500834,None,None,191.10070819500834,None,191.10070819500834,None,191.10070819500834,None,191.10070819500834,None,191.10070819500834,None,193.07901165200747,None,345,001,,,2020_Sep_07_1657,reactive_intentional_encoding_looped,3.2.4,59.80387284043377,
,,,,,,,,,,,,,,,images/mel_gibson_c.jpg,new,face,44,None,,,,,,,,,,,,,,,,,,,,,,,,,,,,,,,,,,,,,,,,,,,,,,,,,,,,,,,,,,,,,,,,,,,,,,,,,,,,,,,,,0,43,43,43,,,,,,,,,,,,,,,,,,,,,,,,,,,,,,,,,,,,,,,,,,,,,,,,,,,,,,,,,,,,,,,193.58817142099724,None,None,193.58817142099724,None,193.58817142099724,None,193.58817142099724,None,193.58817142099724,None,193.58817142099724,None,195.57209408801282,None,345,001,,,2020_Sep_07_1657,reactive_intentional_encoding_looped,3.2.4,59.80387284043377,
,,,,,,,,,,,,,,,images/white_house_a.jpg,new,scene,45,None,,,,,,,,,,,,,,,,,,,,,,,,,,,,,,,,,,,,,,,,,,,,,,,,,,,,,,,,,,,,,,,,,,,,,,,,,,,,,,,,,0,44,44,44,,,,,,,,,,,,,,,,,,,,,,,,,,,,,,,,,,,,,,,,,,,,,,,,,,,,,,,,,,,,,,,196.0879671460134,None,None,196.0879671460134,None,196.0879671460134,None,196.0879671460134,None,196.0879671460134,None,196.0879671460134,None,198.07087691299967,None,345,001,,,2020_Sep_07_1657,reactive_intentional_encoding_looped,3.2.4,59.80387284043377,
,,,,,,,,,,,,,,,images/castle_sand.png,A,object ,46,None,,,,,,,,,,,,,,,,,,,,,,,,,,,,,,,,,,,,,,,,,,,,,,,,,,,,,,,,,,,,,,,,,,,,,,,,,,,,,,,,,0,45,45,45,,,,,,,,,,,,,,,,,,,,,,,,,,,,,,,,,,,,,,,,,,,,,,,,,,,,,,,,,,,,,,,198.58759617400938,None,None,198.58759617400938,None,198.58759617400938,None,198.58759617400938,None,198.58759617400938,None,198.58759617400938,None,200.5715955850028,None,345,001,,,2020_Sep_07_1657,reactive_intentional_encoding_looped,3.2.4,59.80387284043377,
,,,,,,,,,,,,,,,images/pants.png,C,object ,47,direct,,,,,,,,,,,,,,,,,,,,,,,,,,,,,,,,,,,,,,,,,,,,,,,,,,,,,,,,,,,,,,,,,,,,,,,,,,,,,,,,,0,46,46,46,,,,,,,,,,,,,,,,,,,,,,,,,,,,,,,,,,,,,,,,,,,,,,,,,,,,,,,,,,,,,,,201.0889091900026,None,None,201.0889091900026,None,201.0889091900026,None,201.0889091900026,None,201.0889091900026,None,201.0889091900026,None,203.0702463450143,None,345,001,,,2020_Sep_07_1657,reactive_intentional_encoding_looped,3.2.4,59.80387284043377,
,,,,,,,,,,,,,,,images/julia_roberts_c.jpg,B,face,48,direct,,,,,,,,,,,,,,,,,,,,,,,,,,,,,,,,,,,,,,,,,,,,,,,,,,,,,,,,,,,,,,,,,,,,,,,,,,,,,,,,,0,47,47,47,,,,,,,,,,,,,,,,,,,,,,,,,,,,,,,,,,,,,,,,,,,,,,,,,,,,,,,,,,,,,,,203.595249134989,None,None,203.595249134989,None,203.595249134989,None,203.595249134989,None,203.595249134989,None,203.595249134989,None,205.57846962599433,None,345,001,,,2020_Sep_07_1657,reactive_intentional_encoding_looped,3.2.4,59.80387284043377,
,,,,,,,,,,,,,,,images/flipflopsBlue.png,A,object ,49,None,,,,,,,,,,,,,,,,,,,,,,,,,,,,,,,,,,,,,,,,,,,,,,,,,,,,,,,,,,,,,,,,,,,,,,,,,,,,,,,,,0,48,48,48,,,,,,,,,,,,,,,,,,,,,,,,,,,,,,,,,,,,,,,,,,,,,,,,,,,,,,,,,,,,,,,206.09633373800898,None,None,206.09633373800898,None,206.09633373800898,None,206.09633373800898,None,206.09633373800898,None,206.09633373800898,None,208.0786663730105,None,345,001,,,2020_Sep_07_1657,reactive_intentional_encoding_looped,3.2.4,59.80387284043377,
,,,,,,,,,,,,,,,images/peppermill.png,C,object ,50,indirect,,,,,,,,,,,,,,,,,,,,,,,,,,,,,,,,,,,,,,,,,,,,,,,,,,,,,,,,,,,,,,,,,,,,,,,,,,,,,,,,,0,49,49,49,,,,,,,,,,,,,,,,,,,,,,,,,,,,,,,,,,,,,,,,,,,,,,,,,,,,,,,,,,,,,,,208.58634449500823,None,None,208.58634449500823,None,208.58634449500823,None,208.58634449500823,None,208.58634449500823,None,208.58634449500823,None,210.57964322398766,None,345,001,,,2020_Sep_07_1657,reactive_intentional_encoding_looped,3.2.4,59.80387284043377,
,,,,,,,,,,,,,,,images/neuschwanstein_castle_c.jpg,B,scene,51,indirect,,,,,,,,,,,,,,,,,,,,,,,,,,,,,,,,,,,,,,,,,,,,,,,,,,,,,,,,,,,,,,,,,,,,,,,,,,,,,,,,,0,50,50,50,,,,,,,,,,,,,,,,,,,,,,,,,,,,,,,,,,,,,,,,,,,,,,,,,,,,,,,,,,,,,,,211.09533197799465,None,None,211.09533197799465,None,211.09533197799465,None,211.09533197799465,None,211.09533197799465,None,211.09533197799465,None,213.07917449099477,None,345,001,,,2020_Sep_07_1657,reactive_intentional_encoding_looped,3.2.4,59.80387284043377,
,,,,,,,,,,,,,,,images/pen.png,C,object ,52,indirect,,,,,,,,,,,,,,,,,,,,,,,,,,,,,,,,,,,,,,,,,,,,,,,,,,,,,,,,,,,,,,,,,,,,,,,,,,,,,,,,,0,51,51,51,,,,,,,,,,,,,,,,,,,,,,,,,,,,,,,,,,,,,,,,,,,,,,,,,,,,,,,,,,,,,,,213.58711945899995,None,None,213.58711945899995,None,213.58711945899995,None,213.58711945899995,None,213.58711945899995,None,213.58711945899995,None,215.5792768149986,None,345,001,,,2020_Sep_07_1657,reactive_intentional_encoding_looped,3.2.4,59.80387284043377,
,,,,,,,,,,,,,,,images/waikiki_c.jpg,B,scene,53,indirect,,,,,,,,,,,,,,,,,,,,,,,,,,,,,,,,,,,,,,,,,,,,,,,,,,,,,,,,,,,,,,,,,,,,,,,,,,,,,,,,,0,52,52,52,,,,,,,,,,,,,,,,,,,,,,,,,,,,,,,,,,,,,,,,,,,,,,,,,,,,,,,,,,,,,,,216.10283368400997,None,None,216.10283368400997,None,216.10283368400997,None,216.10283368400997,None,216.10283368400997,None,216.10283368400997,None,218.07928648599773,None,345,001,,,2020_Sep_07_1657,reactive_intentional_encoding_looped,3.2.4,59.80387284043377,
,,,,,,,,,,,,,,,images/mug.png,C,object ,54,indirect,,,,,,,,,,,,,,,,,,,,,,,,,,,,,,,,,,,,,,,,,,,,,,,,,,,,,,,,,,,,,,,,,,,,,,,,,,,,,,,,,0,53,53,53,,,,,,,,,,,,,,,,,,,,,,,,,,,,,,,,,,,,,,,,,,,,,,,,,,,,,,,,,,,,,,,218.59526228898903,None,None,218.59526228898903,None,218.59526228898903,None,218.59526228898903,None,218.59526228898903,None,218.59526228898903,None,220.5792039509979,None,345,001,,,2020_Sep_07_1657,reactive_intentional_encoding_looped,3.2.4,59.80387284043377,
,,,,,,,,,,,,,,,images/amy_poehler_c.jpg,B,face,55,indirect,,,,,,,,,,,,,,,,,,,,,,,,,,,,,,,,,,,,,,,,,,,,,,,,,,,,,,,,,,,,,,,,,,,,,,,,,,,,,,,,,0,54,54,54,,,,,,,,,,,,,,,,,,,,,,,,,,,,,,,,,,,,,,,,,,,,,,,,,,,,,,,,,,,,,,,221.08595763301128,None,None,221.08595763301128,None,221.08595763301128,None,221.08595763301128,None,221.08595763301128,None,221.08595763301128,None,223.0789680510061,None,345,001,,,2020_Sep_07_1657,reactive_intentional_encoding_looped,3.2.4,59.80387284043377,
,,,,,,,,,,,,,,,images/ring_diamond.png,new,object ,56,None,,,,,,,,,,,,,,,,,,,,,,,,,,,,,,,,,,,,,,,,,,,,,,,,,,,,,,,,,,,,,,,,,,,,,,,,,,,,,,,,,0,55,55,55,,,,,,,,,,,,,,,,,,,,,,,,,,,,,,,,,,,,,,,,,,,,,,,,,,,,,,,,,,,,,,,223.59432212400134,None,None,223.59432212400134,None,223.59432212400134,None,223.59432212400134,None,223.59432212400134,None,223.59432212400134,None,225.57925333300955,None,345,001,,,2020_Sep_07_1657,reactive_intentional_encoding_looped,3.2.4,59.80387284043377,
,,,,,,,,,,,,,,,images/paddle_bread.png,C,object ,57,direct,,,,,,,,,,,,,,,,,,,,,,,,,,,,,,,,,,,,,,,,,,,,,,,,,,,,,,,,,,,,,,,,,,,,,,,,,,,,,,,,,0,56,56,56,,,,,,,,,,,,,,,,,,,,,,,,,,,,,,,,,,,,,,,,,,,,,,,,,,,,,,,,,,,,,,,226.0957062719972,None,None,226.0957062719972,None,226.0957062719972,None,226.0957062719972,None,226.0957062719972,None,226.0957062719972,None,228.0789943629934,None,345,001,,,2020_Sep_07_1657,reactive_intentional_encoding_looped,3.2.4,59.80387284043377,
,,,,,,,,,,,,,,,images/gaudi_cathedral_c.jpg,B,scene,58,direct,,,,,,,,,,,,,,,,,,,,,,,,,,,,,,,,,,,,,,,,,,,,,,,,,,,,,,,,,,,,,,,,,,,,,,,,,,,,,,,,,0,57,57,57,,,,,,,,,,,,,,,,,,,,,,,,,,,,,,,,,,,,,,,,,,,,,,,,,,,,,,,,,,,,,,,228.60196519599413,None,None,228.60196519599413,None,228.60196519599413,None,228.60196519599413,None,228.60196519599413,None,228.60196519599413,None,230.57912529198802,None,345,001,,,2020_Sep_07_1657,reactive_intentional_encoding_looped,3.2.4,59.80387284043377,
,,,,,,,,,,,,,,,images/notebook_black.png,C,object ,59,indirect,,,,,,,,,,,,,,,,,,,,,,,,,,,,,,,,,,,,,,,,,,,,,,,,,,,,,,,,,,,,,,,,,,,,,,,,,,,,,,,,,0,58,58,58,,,,,,,,,,,,,,,,,,,,,,,,,,,,,,,,,,,,,,,,,,,,,,,,,,,,,,,,,,,,,,,231.09747446599067,None,None,231.09747446599067,None,231.09747446599067,None,231.09747446599067,None,231.09747446599067,None,231.09747446599067,None,233.07871698300005,None,345,001,,,2020_Sep_07_1657,reactive_intentional_encoding_looped,3.2.4,59.80387284043377,
,,,,,,,,,,,,,,,images/forbidden_city_c.jpg,B,scene,60,indirect,,,,,,,,,,,,,,,,,,,,,,,,,,,,,,,,,,,,,,,,,,,,,,,,,,,,,,,,,,,,,,,,,,,,,,,,,,,,,,,,,0,59,59,59,,,,,,,,,,,,,,,,,,,,,,,,,,,,,,,,,,,,,,,,,,,,,,,,,,,,,,,,,,,,,,,233.6015843320056,None,None,233.6015843320056,None,233.6015843320056,None,233.6015843320056,None,233.6015843320056,None,233.6015843320056,None,235.5787803150015,None,345,001,,,2020_Sep_07_1657,reactive_intentional_encoding_looped,3.2.4,59.80387284043377,
,,,,,,,,,,,,,,,images/boat_sail.png,A,object ,61,None,,,,,,,,,,,,,,,,,,,,,,,,,,,,,,,,,,,,,,,,,,,,,,,,,,,,,,,,,,,,,,,,,,,,,,,,,,,,,,,,,0,60,60,60,,,,,,,,,,,,,,,,,,,,,,,,,,,,,,,,,,,,,,,,,,,,,,,,,,,,,,,,,,,,,,,236.09552663000068,None,None,236.09552663000068,None,236.09552663000068,None,236.09552663000068,None,236.09552663000068,None,236.09552663000068,None,238.07881441299105,None,345,001,,,2020_Sep_07_1657,reactive_intentional_encoding_looped,3.2.4,59.80387284043377,
,,,,,,,,,,,,,,,images/mike_myers_c.jpg,new,face,62,None,,,,,,,,,,,,,,,,,,,,,,,,,,,,,,,,,,,,,,,,,,,,,,,,,,,,,,,,,,,,,,,,,,,,,,,,,,,,,,,,,0,61,61,61,,,,,,,,,,,,,,,,,,,,,,,,,,,,,,,,,,,,,,,,,,,,,,,,,,,,,,,,,,,,,,,238.58776468399446,None,None,238.58776468399446,None,238.58776468399446,None,238.58776468399446,None,238.58776468399446,None,238.58776468399446,None,240.57881277499837,None,345,001,,,2020_Sep_07_1657,reactive_intentional_encoding_looped,3.2.4,59.80387284043377,
,,,,,,,,,,,,,,,images/flashlight.png,A,object ,63,None,,,,,,,,,,,,,,,,,,,,,,,,,,,,,,,,,,,,,,,,,,,,,,,,,,,,,,,,,,,,,,,,,,,,,,,,,,,,,,,,,0,62,62,62,,,,,,,,,,,,,,,,,,,,,,,,,,,,,,,,,,,,,,,,,,,,,,,,,,,,,,,,,,,,,,,241.0850701869931,None,None,241.0850701869931,None,241.0850701869931,None,241.0850701869931,None,241.0850701869931,None,241.0850701869931,None,243.0788540620124,None,345,001,,,2020_Sep_07_1657,reactive_intentional_encoding_looped,3.2.4,59.80387284043377,
,,,,,,,,,,,,,,,images/match.png,C,object ,64,direct,,,,,,,,,,,,,,,,,,,,,,,,,,,,,,,,,,,,,,,,,,,,,,,,,,,,,,,,,,,,,,,,,,,,,,,,,,,,,,,,,0,63,63,63,,,,,,,,,,,,,,,,,,,,,,,,,,,,,,,,,,,,,,,,,,,,,,,,,,,,,,,,,,,,,,,243.5949193680135,None,None,243.5949193680135,None,243.5949193680135,None,243.5949193680135,None,243.5949193680135,None,243.5949193680135,None,245.57883150401176,None,345,001,,,2020_Sep_07_1657,reactive_intentional_encoding_looped,3.2.4,59.80387284043377,
,,,,,,,,,,,,,,,images/grand_canyon_c.jpg,B,scene,65,direct,,,,,,,,,,,,,,,,,,,,,,,,,,,,,,,,,,,,,,,,,,,,,,,,,,,,,,,,,,,,,,,,,,,,,,,,,,,,,,,,,0,64,64,64,,,,,,,,,,,,,,,,,,,,,,,,,,,,,,,,,,,,,,,,,,,,,,,,,,,,,,,,,,,,,,,246.09518426799332,None,None,246.09518426799332,None,246.09518426799332,None,246.09518426799332,None,246.09518426799332,None,246.09518426799332,None,248.0788438640011,None,345,001,,,2020_Sep_07_1657,reactive_intentional_encoding_looped,3.2.4,59.80387284043377,
,,,,,,,,,,,,,,,images/scooter.png,A,object ,66,None,,,,,,,,,,,,,,,,,,,,,,,,,,,,,,,,,,,,,,,,,,,,,,,,,,,,,,,,,,,,,,,,,,,,,,,,,,,,,,,,,0,65,65,65,,,,,,,,,,,,,,,,,,,,,,,,,,,,,,,,,,,,,,,,,,,,,,,,,,,,,,,,,,,,,,,248.59427346198936,None,None,248.59427346198936,None,248.59427346198936,None,248.59427346198936,None,248.59427346198936,None,248.59427346198936,None,250.57869661098812,None,345,001,,,2020_Sep_07_1657,reactive_intentional_encoding_looped,3.2.4,59.80387284043377,
,,,,,,,,,,,,,,,images/paddle ball.jpg,C,object ,67,direct,,,,,,,,,,,,,,,,,,,,,,,,,,,,,,,,,,,,,,,,,,,,,,,,,,,,,,,,,,,,,,,,,,,,,,,,,,,,,,,,,0,66,66,66,,,,,,,,,,,,,,,,,,,,,,,,,,,,,,,,,,,,,,,,,,,,,,,,,,,,,,,,,,,,,,,251.0993130679999,None,None,251.0993130679999,None,251.0993130679999,None,251.0993130679999,None,251.0993130679999,None,251.0993130679999,None,253.07838359300513,None,345,001,,,2020_Sep_07_1657,reactive_intentional_encoding_looped,3.2.4,59.80387284043377,
,,,,,,,,,,,,,,,images/joshua_tree_c.jpg,B,scene,68,direct,,,,,,,,,,,,,,,,,,,,,,,,,,,,,,,,,,,,,,,,,,,,,,,,,,,,,,,,,,,,,,,,,,,,,,,,,,,,,,,,,0,67,67,67,,,,,,,,,,,,,,,,,,,,,,,,,,,,,,,,,,,,,,,,,,,,,,,,,,,,,,,,,,,,,,,253.59512384899426,None,None,253.59512384899426,None,253.59512384899426,None,253.59512384899426,None,253.59512384899426,None,253.59512384899426,None,255.57856302900473,None,345,001,,,2020_Sep_07_1657,reactive_intentional_encoding_looped,3.2.4,59.80387284043377,
,,,,,,,,,,,,,,,images/gametable_airhockey.png,A,object ,69,None,,,,,,,,,,,,,,,,,,,,,,,,,,,,,,,,,,,,,,,,,,,,,,,,,,,,,,,,,,,,,,,,,,,,,,,,,,,,,,,,,0,68,68,68,,,,,,,,,,,,,,,,,,,,,,,,,,,,,,,,,,,,,,,,,,,,,,,,,,,,,,,,,,,,,,,256.0989384840068,None,None,256.0989384840068,None,256.0989384840068,None,256.0989384840068,None,256.0989384840068,None,256.0989384840068,None,258.07793352901354,None,345,001,,,2020_Sep_07_1657,reactive_intentional_encoding_looped,3.2.4,59.80387284043377,
,,,,,,,,,,,,,,,images/guitar_electric.png,A,object ,70,None,,,,,,,,,,,,,,,,,,,,,,,,,,,,,,,,,,,,,,,,,,,,,,,,,,,,,,,,,,,,,,,,,,,,,,,,,,,,,,,,,0,69,69,69,,,,,,,,,,,,,,,,,,,,,,,,,,,,,,,,,,,,,,,,,,,,,,,,,,,,,,,,,,,,,,,258.5949931239884,None,None,258.5949931239884,None,258.5949931239884,None,258.5949931239884,None,258.5949931239884,None,258.5949931239884,None,260.5781083139882,None,345,001,,,2020_Sep_07_1657,reactive_intentional_encoding_looped,3.2.4,59.80387284043377,
,,,,,,,,,,,,,,,images/chain_rusty.png,A,object ,71,None,,,,,,,,,,,,,,,,,,,,,,,,,,,,,,,,,,,,,,,,,,,,,,,,,,,,,,,,,,,,,,,,,,,,,,,,,,,,,,,,,0,70,70,70,,,,,,,,,,,,,,,,,,,,,,,,,,,,,,,,,,,,,,,,,,,,,,,,,,,,,,,,,,,,,,,261.0950312030036,None,None,261.0950312030036,None,261.0950312030036,None,261.0950312030036,None,261.0950312030036,None,261.0950312030036,None,263.0783953309874,None,345,001,,,2020_Sep_07_1657,reactive_intentional_encoding_looped,3.2.4,59.80387284043377,
,,,,,,,,,,,,,,,images/fan.png,A,object ,72,None,,,,,,,,,,,,,,,,,,,,,,,,,,,,,,,,,,,,,,,,,,,,,,,,,,,,,,,,,,,,,,,,,,,,,,,,,,,,,,,,,0,71,71,71,,,,,,,,,,,,,,,,,,,,,,,,,,,,,,,,,,,,,,,,,,,,,,,,,,,,,,,,,,,,,,,263.6112372739881,None,None,263.6112372739881,None,263.6112372739881,None,263.6112372739881,None,263.6112372739881,None,263.6112372739881,None,265.5784287969873,None,345,001,,,2020_Sep_07_1657,reactive_intentional_encoding_looped,3.2.4,59.80387284043377,
,,,,,,,,,,,,,,,images/drum.png,A,object ,73,None,,,,,,,,,,,,,,,,,,,,,,,,,,,,,,,,,,,,,,,,,,,,,,,,,,,,,,,,,,,,,,,,,,,,,,,,,,,,,,,,,0,72,72,72,,,,,,,,,,,,,,,,,,,,,,,,,,,,,,,,,,,,,,,,,,,,,,,,,,,,,,,,,,,,,,,266.35170869200374,None,None,266.35170869200374,None,266.35170869200374,None,266.35170869200374,None,266.35170869200374,None,266.35170869200374,None,268.0776752769889,None,345,001,,,2020_Sep_07_1657,reactive_intentional_encoding_looped,3.2.4,59.80387284043377,
,,,,,,,,,,,,,,,images/mask_black.jpg,C,object ,74,indirect,,,,,,,,,,,,,,,,,,,,,,,,,,,,,,,,,,,,,,,,,,,,,,,,,,,,,,,,,,,,,,,,,,,,,,,,,,,,,,,,,0,73,73,73,,,,,,,,,,,,,,,,,,,,,,,,,,,,,,,,,,,,,,,,,,,,,,,,,,,,,,,,,,,,,,,268.6115587190143,None,None,268.6115587190143,None,268.6115587190143,None,268.6115587190143,None,268.6115587190143,None,268.6115587190143,None,270.57852240500506,None,345,001,,,2020_Sep_07_1657,reactive_intentional_encoding_looped,3.2.4,59.80387284043377,
,,,,,,,,,,,,,,,images/drew_barrymore_c.jpg,B,face,75,indirect,,,,,,,,,,,,,,,,,,,,,,,,,,,,,,,,,,,,,,,,,,,,,,,,,,,,,,,,,,,,,,,,,,,,,,,,,,,,,,,,,0,74,74,74,,,,,,,,,,,,,,,,,,,,,,,,,,,,,,,,,,,,,,,,,,,,,,,,,,,,,,,,,,,,,,,271.09423209901433,None,None,271.09423209901433,None,271.09423209901433,None,271.09423209901433,None,271.09423209901433,None,271.09423209901433,None,273.07812267099507,None,345,001,,,2020_Sep_07_1657,reactive_intentional_encoding_looped,3.2.4,59.80387284043377,
,,,,,,,,,,,,,,,images/milk_shake.jpg,C,object ,76,direct,,,,,,,,,,,,,,,,,,,,,,,,,,,,,,,,,,,,,,,,,,,,,,,,,,,,,,,,,,,,,,,,,,,,,,,,,,,,,,,,,0,75,75,75,,,,,,,,,,,,,,,,,,,,,,,,,,,,,,,,,,,,,,,,,,,,,,,,,,,,,,,,,,,,,,,273.59506448500906,None,None,273.59506448500906,None,273.59506448500906,None,273.59506448500906,None,273.59506448500906,None,273.59506448500906,None,275.57846313901246,None,345,001,,,2020_Sep_07_1657,reactive_intentional_encoding_looped,3.2.4,59.80387284043377,
,,,,,,,,,,,,,,,images/iguazu_falls_b.jpg,B,scene,77,direct,,,,,,,,,,,,,,,,,,,,,,,,,,,,,,,,,,,,,,,,,,,,,,,,,,,,,,,,,,,,,,,,,,,,,,,,,,,,,,,,,0,76,76,76,,,,,,,,,,,,,,,,,,,,,,,,,,,,,,,,,,,,,,,,,,,,,,,,,,,,,,,,,,,,,,,276.0950137489999,None,None,276.0950137489999,None,276.0950137489999,None,276.0950137489999,None,276.0950137489999,None,276.0950137489999,None,278.07850249900366,None,345,001,,,2020_Sep_07_1657,reactive_intentional_encoding_looped,3.2.4,59.80387284043377,
,,,,,,,,,,,,,,,images/megaphone.png,C,object ,78,indirect,,,,,,,,,,,,,,,,,,,,,,,,,,,,,,,,,,,,,,,,,,,,,,,,,,,,,,,,,,,,,,,,,,,,,,,,,,,,,,,,,0,77,77,77,,,,,,,,,,,,,,,,,,,,,,,,,,,,,,,,,,,,,,,,,,,,,,,,,,,,,,,,,,,,,,,278.5944906740042,None,None,278.5944906740042,None,278.5944906740042,None,278.5944906740042,None,278.5944906740042,None,278.5944906740042,None,280.5782483970106,None,345,001,,,2020_Sep_07_1657,reactive_intentional_encoding_looped,3.2.4,59.80387284043377,
,,,,,,,,,,,,,,,images/mark_zuckerberg_c.jpg,B,face,79,indirect,,,,,,,,,,,,,,,,,,,,,,,,,,,,,,,,,,,,,,,,,,,,,,,,,,,,,,,,,,,,,,,,,,,,,,,,,,,,,,,,,0,78,78,78,,,,,,,,,,,,,,,,,,,,,,,,,,,,,,,,,,,,,,,,,,,,,,,,,,,,,,,,,,,,,,,281.09408224900835,None,None,281.09408224900835,None,281.09408224900835,None,281.09408224900835,None,281.09408224900835,None,281.09408224900835,None,283.0782321259903,None,345,001,,,2020_Sep_07_1657,reactive_intentional_encoding_looped,3.2.4,59.80387284043377,
,,,,,,,,,,,,,,,images/coin.jpg,new,object ,80,None,,,,,,,,,,,,,,,,,,,,,,,,,,,,,,,,,,,,,,,,,,,,,,,,,,,,,,,,,,,,,,,,,,,,,,,,,,,,,,,,,0,79,79,79,,,,,,,,,,,,,,,,,,,,,,,,,,,,,,,,,,,,,,,,,,,,,,,,,,,,,,,,,,,,,,,283.59433001599973,None,None,283.59433001599973,None,283.59433001599973,None,283.59433001599973,None,283.59433001599973,None,283.59433001599973,None,285.5779181809921,None,345,001,,,2020_Sep_07_1657,reactive_intentional_encoding_looped,3.2.4,59.80387284043377,
,,,,,,,,,,,,,,,images/toyTrain.png,C,object ,81,indirect,,,,,,,,,,,,,,,,,,,,,,,,,,,,,,,,,,,,,,,,,,,,,,,,,,,,,,,,,,,,,,,,,,,,,,,,,,,,,,,,,0,80,80,80,,,,,,,,,,,,,,,,,,,,,,,,,,,,,,,,,,,,,,,,,,,,,,,,,,,,,,,,,,,,,,,286.1108960720012,None,None,286.1108960720012,None,286.1108960720012,None,286.1108960720012,None,286.1108960720012,None,286.1108960720012,None,288.07833341200603,None,345,001,,,2020_Sep_07_1657,reactive_intentional_encoding_looped,3.2.4,59.80387284043377,
,,,,,,,,,,,,,,,images/bill_gates_a.jpg,B,face,82,indirect,,,,,,,,,,,,,,,,,,,,,,,,,,,,,,,,,,,,,,,,,,,,,,,,,,,,,,,,,,,,,,,,,,,,,,,,,,,,,,,,,0,81,81,81,,,,,,,,,,,,,,,,,,,,,,,,,,,,,,,,,,,,,,,,,,,,,,,,,,,,,,,,,,,,,,,288.5938652539917,None,None,288.5938652539917,None,288.5938652539917,None,288.5938652539917,None,288.5938652539917,None,288.5938652539917,None,290.57760287699057,None,345,001,,,2020_Sep_07_1657,reactive_intentional_encoding_looped,3.2.4,59.80387284043377,
,,,,,,,,,,,,,,,images/portapotty.png,A,object ,83,None,,,,,,,,,,,,,,,,,,,,,,,,,,,,,,,,,,,,,,,,,,,,,,,,,,,,,,,,,,,,,,,,,,,,,,,,,,,,,,,,,0,82,82,82,,,,,,,,,,,,,,,,,,,,,,,,,,,,,,,,,,,,,,,,,,,,,,,,,,,,,,,,,,,,,,,291.09445703800884,None,None,291.09445703800884,None,291.09445703800884,None,291.09445703800884,None,291.09445703800884,None,291.09445703800884,None,293.07759915300994,None,345,001,,,2020_Sep_07_1657,reactive_intentional_encoding_looped,3.2.4,59.80387284043377,
,,,,,,,,,,,,,,,images/shoe_pumps.jpg,A,object ,84,None,,,,,,,,,,,,,,,,,,,,,,,,,,,,,,,,,,,,,,,,,,,,,,,,,,,,,,,,,,,,,,,,,,,,,,,,,,,,,,,,,0,83,83,83,,,,,,,,,,,,,,,,,,,,,,,,,,,,,,,,,,,,,,,,,,,,,,,,,,,,,,,,,,,,,,,293.59858553198865,None,None,293.59858553198865,None,293.59858553198865,None,293.59858553198865,None,293.59858553198865,None,293.59858553198865,None,295.5779535449983,None,345,001,,,2020_Sep_07_1657,reactive_intentional_encoding_looped,3.2.4,59.80387284043377,
,,,,,,,,,,,,,,,images/ribbon.jpg,new,object ,85,None,,,,,,,,,,,,,,,,,,,,,,,,,,,,,,,,,,,,,,,,,,,,,,,,,,,,,,,,,,,,,,,,,,,,,,,,,,,,,,,,,0,84,84,84,,,,,,,,,,,,,,,,,,,,,,,,,,,,,,,,,,,,,,,,,,,,,,,,,,,,,,,,,,,,,,,296.09390102000907,None,None,296.09390102000907,None,296.09390102000907,None,296.09390102000907,None,296.09390102000907,None,296.09390102000907,None,298.0781015889952,None,345,001,,,2020_Sep_07_1657,reactive_intentional_encoding_looped,3.2.4,59.80387284043377,
,,,,,,,,,,,,,,,images/ring_diamond.png,A,object ,86,None,,,,,,,,,,,,,,,,,,,,,,,,,,,,,,,,,,,,,,,,,,,,,,,,,,,,,,,,,,,,,,,,,,,,,,,,,,,,,,,,,0,85,85,85,,,,,,,,,,,,,,,,,,,,,,,,,,,,,,,,,,,,,,,,,,,,,,,,,,,,,,,,,,,,,,,298.5937059780117,None,None,298.5937059780117,None,298.5937059780117,None,298.5937059780117,None,298.5937059780117,None,298.5937059780117,None,300.57661425799597,None,345,001,,,2020_Sep_07_1657,reactive_intentional_encoding_looped,3.2.4,59.80387284043377,
,,,,,,,,,,,,,,,images/teddybear_brown.jpg,C,object ,87,direct,,,,,,,,,,,,,,,,,,,,,,,,,,,,,,,,,,,,,,,,,,,,,,,,,,,,,,,,,,,,,,,,,,,,,,,,,,,,,,,,,0,86,86,86,,,,,,,,,,,,,,,,,,,,,,,,,,,,,,,,,,,,,,,,,,,,,,,,,,,,,,,,,,,,,,,301.0935628619918,None,None,301.0935628619918,None,301.0935628619918,None,301.0935628619918,None,301.0935628619918,None,301.0935628619918,None,303.0765003080014,None,345,001,,,2020_Sep_07_1657,reactive_intentional_encoding_looped,3.2.4,59.80387284043377,
,,,,,,,,,,,,,,,images/cn_tower_b.jpg,B,scene,88,direct,,,,,,,,,,,,,,,,,,,,,,,,,,,,,,,,,,,,,,,,,,,,,,,,,,,,,,,,,,,,,,,,,,,,,,,,,,,,,,,,,0,87,87,87,,,,,,,,,,,,,,,,,,,,,,,,,,,,,,,,,,,,,,,,,,,,,,,,,,,,,,,,,,,,,,,303.5977134410059,None,None,303.5977134410059,None,303.5977134410059,None,303.5977134410059,None,303.5977134410059,None,303.5977134410059,None,305.57642253598897,None,345,001,,,2020_Sep_07_1657,reactive_intentional_encoding_looped,3.2.4,59.80387284043377,
,,,,,,,,,,,,,,,images/ball_baseball.png,A,object ,89,None,,,,,,,,,,,,,,,,,,,,,,,,,,,,,,,,,,,,,,,,,,,,,,,,,,,,,,,,,,,,,,,,,,,,,,,,,,,,,,,,,0,88,88,88,,,,,,,,,,,,,,,,,,,,,,,,,,,,,,,,,,,,,,,,,,,,,,,,,,,,,,,,,,,,,,,306.0933712210099,None,None,306.0933712210099,None,306.0933712210099,None,306.0933712210099,None,306.0933712210099,None,306.0933712210099,None,308.0776076900074,None,345,001,,,2020_Sep_07_1657,reactive_intentional_encoding_looped,3.2.4,59.80387284043377,
,,,,,,,,,,,,,,,images/skirt.jpg,A,object ,90,None,,,,,,,,,,,,,,,,,,,,,,,,,,,,,,,,,,,,,,,,,,,,,,,,,,,,,,,,,,,,,,,,,,,,,,,,,,,,,,,,,0,89,89,89,,,,,,,,,,,,,,,,,,,,,,,,,,,,,,,,,,,,,,,,,,,,,,,,,,,,,,,,,,,,,,,308.59221220601466,None,None,308.59221220601466,None,308.59221220601466,None,308.59221220601466,None,308.59221220601466,None,308.59221220601466,None,310.57799625300686,None,345,001,,,2020_Sep_07_1657,reactive_intentional_encoding_looped,3.2.4,59.80387284043377,
,,,,,,,,,,,,,,,images/firehydrant.png,A,object ,91,None,,,,,,,,,,,,,,,,,,,,,,,,,,,,,,,,,,,,,,,,,,,,,,,,,,,,,,,,,,,,,,,,,,,,,,,,,,,,,,,,,0,90,90,90,,,,,,,,,,,,,,,,,,,,,,,,,,,,,,,,,,,,,,,,,,,,,,,,,,,,,,,,,,,,,,,311.09427232301096,None,None,311.09427232301096,None,311.09427232301096,None,311.09427232301096,None,311.09427232301096,None,311.09427232301096,None,313.0770787569927,None,345,001,,,2020_Sep_07_1657,reactive_intentional_encoding_looped,3.2.4,59.80387284043377,
,,,,,,,,,,,,,,,images/pacifier.png,C,object ,92,direct,,,,,,,,,,,,,,,,,,,,,,,,,,,,,,,,,,,,,,,,,,,,,,,,,,,,,,,,,,,,,,,,,,,,,,,,,,,,,,,,,0,91,91,91,,,,,,,,,,,,,,,,,,,,,,,,,,,,,,,,,,,,,,,,,,,,,,,,,,,,,,,,,,,,,,,313.5915921039996,None,None,313.5915921039996,None,313.5915921039996,None,313.5915921039996,None,313.5915921039996,None,313.5915921039996,None,315.5773111110029,None,345,001,,,2020_Sep_07_1657,reactive_intentional_encoding_looped,3.2.4,59.80387284043377,
,,,,,,,,,,,,,,,images/michelle_obama_a.jpg,B,face,93,direct,,,,,,,,,,,,,,,,,,,,,,,,,,,,,,,,,,,,,,,,,,,,,,,,,,,,,,,,,,,,,,,,,,,,,,,,,,,,,,,,,0,92,92,92,,,,,,,,,,,,,,,,,,,,,,,,,,,,,,,,,,,,,,,,,,,,,,,,,,,,,,,,,,,,,,,316.0914607809973,None,None,316.0914607809973,None,316.0914607809973,None,316.0914607809973,None,316.0914607809973,None,316.0914607809973,None,318.0777897980006,None,345,001,,,2020_Sep_07_1657,reactive_intentional_encoding_looped,3.2.4,59.80387284043377,
,,,,,,,,,,,,,,,images/drill.jpg,A,object ,94,None,,,,,,,,,,,,,,,,,,,,,,,,,,,,,,,,,,,,,,,,,,,,,,,,,,,,,,,,,,,,,,,,,,,,,,,,,,,,,,,,,0,93,93,93,,,,,,,,,,,,,,,,,,,,,,,,,,,,,,,,,,,,,,,,,,,,,,,,,,,,,,,,,,,,,,,318.59207193998736,None,None,318.59207193998736,None,318.59207193998736,None,318.59207193998736,None,318.59207193998736,None,318.59207193998736,None,320.57750500700786,None,345,001,,,2020_Sep_07_1657,reactive_intentional_encoding_looped,3.2.4,59.80387284043377,
,,,,,,,,,,,,,,,images/orlando_bloom_b.jpg,new,face,95,None,,,,,,,,,,,,,,,,,,,,,,,,,,,,,,,,,,,,,,,,,,,,,,,,,,,,,,,,,,,,,,,,,,,,,,,,,,,,,,,,,0,94,94,94,,,,,,,,,,,,,,,,,,,,,,,,,,,,,,,,,,,,,,,,,,,,,,,,,,,,,,,,,,,,,,,321.0922256449994,None,None,321.0922256449994,None,321.0922256449994,None,321.0922256449994,None,321.0922256449994,None,321.0922256449994,None,323.0776562920073,None,345,001,,,2020_Sep_07_1657,reactive_intentional_encoding_looped,3.2.4,59.80387284043377,
,,,,,,,,,,,,,,,images/bandage.jpg,A,object ,96,None,,,,,,,,,,,,,,,,,,,,,,,,,,,,,,,,,,,,,,,,,,,,,,,,,,,,,,,,,,,,,,,,,,,,,,,,,,,,,,,,,0,95,95,95,,,,,,,,,,,,,,,,,,,,,,,,,,,,,,,,,,,,,,,,,,,,,,,,,,,,,,,,,,,,,,,323.59328548100893,None,None,323.59328548100893,None,323.59328548100893,None,323.59328548100893,None,323.59328548100893,None,323.59328548100893,None,325.5773518710048,None,345,001,,,2020_Sep_07_1657,reactive_intentional_encoding_looped,3.2.4,59.80387284043377,
