instructions1,Instructions2,Image1,Image2,Image3,Image4,position_1x,position_1y,position_2x,position_2y,J_key,K_key,L_key,yes_text,no_text,instruction_intentional_encoding.thisRepN,instruction_intentional_encoding.thisTrialN,instruction_intentional_encoding.thisN,instruction_intentional_encoding.thisIndex,practice_trials_intentional_encoding.thisRepN,practice_trials_intentional_encoding.thisTrialN,practice_trials_intentional_encoding.thisN,practice_trials_intentional_encoding.thisIndex,trials.thisRepN,trials.thisTrialN,trials.thisN,trials.thisIndex,trials_4.thisRepN,trials_4.thisTrialN,trials_4.thisN,trials_4.thisIndex,trials_2.thisRepN,trials_2.thisTrialN,trials_2.thisN,trials_2.thisIndex,trials_5.thisRepN,trials_5.thisTrialN,trials_5.thisN,trials_5.thisIndex,trials_3.thisRepN,trials_3.thisTrialN,trials_3.thisN,trials_3.thisIndex,trials_6.thisRepN,trials_6.thisTrialN,trials_6.thisN,trials_6.thisIndex,trials_7.thisRepN,trials_7.thisTrialN,trials_7.thisN,trials_7.thisIndex,trials_8.thisRepN,trials_8.thisTrialN,trials_8.thisN,trials_8.thisIndex,trials_9.thisRepN,trials_9.thisTrialN,trials_9.thisN,trials_9.thisIndex,trials_10.thisRepN,trials_10.thisTrialN,trials_10.thisN,trials_10.thisIndex,trials_11.thisRepN,trials_11.thisTrialN,trials_11.thisN,trials_11.thisIndex,trials_12.thisRepN,trials_12.thisTrialN,trials_12.thisN,trials_12.thisIndex,trials_13.thisRepN,trials_13.thisTrialN,trials_13.thisN,trials_13.thisIndex,trials_15.thisRepN,trials_15.thisTrialN,trials_15.thisN,trials_15.thisIndex,trials_18.thisRepN,trials_18.thisTrialN,trials_18.thisN,trials_18.thisIndex,trials_17.thisRepN,trials_17.thisTrialN,trials_17.thisN,trials_17.thisIndex,trials_19.thisRepN,trials_19.thisTrialN,trials_19.thisN,trials_19.thisIndex,trials_20.thisRepN,trials_20.thisTrialN,trials_20.thisN,trials_20.thisIndex,trials_21.thisRepN,trials_21.thisTrialN,trials_21.thisN,trials_21.thisIndex,trials_22.thisRepN,trials_22.thisTrialN,trials_22.thisN,trials_22.thisIndex,text_9.started,text_9.stopped,key_resp_3.keys,key_resp_3.rt,key_resp_3.started,key_resp_3.stopped,post_retreival_practice_intructions.started,post_retreival_practice_intructions.stopped,key_resp_4.keys,key_resp_4.rt,key_resp_4.started,key_resp_4.stopped,text_12.started,text_12.stopped,key_resp_6.keys,key_resp_6.rt,key_resp_6.started,key_resp_6.stopped,text_13.started,text_13.stopped,key_resp_7.keys,key_resp_7.rt,key_resp_7.started,key_resp_7.stopped,text_15.started,text_15.stopped,key_resp_8.keys,key_resp_8.rt,key_resp_8.started,key_resp_8.stopped,text_2.started,text_2.stopped,key_resp_14.keys,key_resp_14.rt,key_resp_14.started,key_resp_14.stopped,text_14.started,text_14.stopped,pressspace.started,pressspace.stopped,key_resp_16.keys,key_resp_16.rt,key_resp_16.started,key_resp_16.stopped,image_17.started,image_17.stopped,Jkey.started,Jkey.stopped,F_key.started,F_key.stopped,oldText.started,oldText.stopped,newtext.started,newtext.stopped,text_27.started,text_27.stopped,key_resp_18.keys,key_resp_18.rt,key_resp_18.started,key_resp_18.stopped,image_oldnew.started,image_oldnew.stopped,questioniarre.started,questioniarre.stopped,key_resp_19.keys,key_resp_19.rt,key_resp_19.started,key_resp_19.stopped,text_29.started,text_29.stopped,image_18.started,image_18.stopped,image_19.started,image_19.stopped,image_20.started,image_20.stopped,image_21.started,image_21.stopped,participant,sex,age,,date,expName,psychopyVersion,frameRate,
,,,,,,,,,,,,,,,,,,,,,,,,,,,,,,,,,,,,,,,,,,,,,,,,,,,,,,,,,,,,,,,,,,,,,,,,,,,,,,,,,,,,,,,,,,,,,,,,,,,,,,,9.566720268048812,None,space,0.07971543096937239,10.05724110204028,None,,,,,,,,,,,,,,,,,,,,,,,,,,,,,,,,,,,,,,,,,,,,,,,,,,,,,,,,,,,,,,,,,,,,,,,,,34,001,,,2020_Sep_10_1940,reactive_intentional_encoding_looped,3.2.4,59.88557076305974,
,,,,,,,,,,,,,,,,,,,,,,,,,,,,,,,,,,,,,,,,,,,,,,,,,,,,,,,,,,,,,,,,,,,,,,,,,,,,,,,,,,,,,,,,,,,,,,,,,,,,,,,,,,,,,10.191366536018904,None,space,0.19437932403525338,10.191366536018904,None,,,,,,,,,,,,,,,,,,,,,,,,,,,,,,,,,,,,,,,,,,,,,,,,,,,,,,,,,,,,,,,,,,,34,001,,,2020_Sep_10_1940,reactive_intentional_encoding_looped,3.2.4,59.88557076305974,
,,,,,,,,,,,,,,,,,,,,,,,,,,,,,,,,,,,,,,,,,,,,,,,,,,,,,,,,,,,,,,,,,,,,,,,,,,,,,,,,,,,,,,,,,,,,,,,,,,,,,,,,,,,,,,,,,,,10.449194892018568,None,space,0.21754345000954345,10.649256642034743,None,,,,,,,,,,,,,,,,,,,,,,,,,,,,,,,,,,,,,,,,,,,,,,,,,,,,,,,,,,,,,34,001,,,2020_Sep_10_1940,reactive_intentional_encoding_looped,3.2.4,59.88557076305974,
,,,,,,,,,,,,,,,,,,,,,,,,,,,,,,,,,,,,,,,,,,,,,,,,,,,,,,,,,,,,,,,,,,,,,,,,,,,,,,,,,,,,,,,,,,,,,,,,,,,,,,,,,,,,,,,,,,,,,,,,,10.891332991013769,None,space,0.23674189404118806,10.891332991013769,None,,,,,,,,,,,,,,,,,,,,,,,,,,,,,,,,,,,,,,,,,,,,,,,,,,,,,,,34,001,,,2020_Sep_10_1940,reactive_intentional_encoding_looped,3.2.4,59.88557076305974,
,,,,,,,,,,,,,,,,,,,,,,,,,,,,,,,,,,,,,,,,,,,,,,,,,,,,,,,,,,,,,,,,,,,,,,,,,,,,,,,,,,,,,,,,,,,,,,,,,,,,,,,,,,,,,,,,,,,11.201451853034087,None,space,0.26007632800610736,11.406878805020824,None,,,,,,,,,,,,,,,,,,,,,,,,,,,,,,,,,,,,,,,,,,,,,,,,,,,,,,,,,,,,,34,001,,,2020_Sep_10_1940,reactive_intentional_encoding_looped,3.2.4,59.88557076305974,
,,,,,,,,,,,,,,,,,,,,,,,,,,,,,,,,,,,,,,,,,,,,,,,,,,,,,,,,,,,,,,,,,,,,,,,,,,,,,,,,,,,,,,,,,,,,,,,,,,,,,,,,,,,,,,,,,,,,,,,,,11.691693591012154,None,space,0.25794104899978265,11.691693591012154,None,,,,,,,,,,,,,,,,,,,,,,,,,,,,,,,,,,,,,,,,,,,,,,,,,,,,,,,34,001,,,2020_Sep_10_1940,reactive_intentional_encoding_looped,3.2.4,59.88557076305974,
,,,,,,,,,,,,,,,,,,,,,,,,,,,,,,,,,,,,,,,,,,,,,,,,,,,,,,,,,,,,,,,,,,,,,,,,,,,,,,,,,,,,,,,,,,,,,,,,,,,,,,,,,,,,,,,,,,,12.014963433030061,None,space,0.25437916797818616,12.224485380051192,None,,,,,,,,,,,,,,,,,,,,,,,,,,,,,,,,,,,,,,,,,,,,,,,,,,,,,,,,,,,,,34,001,,,2020_Sep_10_1940,reactive_intentional_encoding_looped,3.2.4,59.88557076305974,
,,,,,,,,,,,,,,,,,,,,,,,,,,,,,,,,,,,,,,,,,,,,,,,,,,,,,,,,,,,,,,,,,,,,,,,,,,,,,,,,,,,,,,,,,,,,,,,,,,,,,,,,,,,,,,,,,,,,,,,,,12.51465490105329,None,space,0.24910739704500884,12.51465490105329,None,,,,,,,,,,,,,,,,,,,,,,,,,,,,,,,,,,,,,,,,,,,,,,,,,,,,,,,34,001,,,2020_Sep_10_1940,reactive_intentional_encoding_looped,3.2.4,59.88557076305974,
,,,,,,,,,,,,,,,,,,,,,,,,,,,,,,,,,,,,,,,,,,,,,,,,,,,,,,,,,,,,,,,,,,,,,,,,,,,,,,,,,,,,,,,,,,,,,,,,,,,,,,,,,,,,,,,,,,,,,,,,,,,,,,,12.806526107015088,None,space,0.22826380602782592,12.806526107015088,None,,,,,,,,,,,,,,,,,,,,,,,,,,,,,,,,,,,,,,,,,,,,,,,,,34,001,,,2020_Sep_10_1940,reactive_intentional_encoding_looped,3.2.4,59.88557076305974,
,,,,,,,,,,,,,,,,,,,,,,,,,,,,,,,,,,,,,,,,,,,,,,,,,,,,,,,,,,,,,,,,,,,,,,,,,,,,,,,,,,,,,,,,,,,,,,,,,,,,,,,,,,,,,,,,,,,,,,,,,,,,,,,,,,,,,13.085013051051646,None,space,0.31369680899661034,13.085013051051646,None,,,,,,,,,,,,,,,,,,,,,,,,,,,,,,,,,,,,,,,,,,,34,001,,,2020_Sep_10_1940,reactive_intentional_encoding_looped,3.2.4,59.88557076305974,
"You're now almost finished the task! In the last part, you will do another memory test. You will be shown an image, like below, on each trial. Your job is to indicate whether you have seen this image before at ANY point in the task. If you have seen the image before, press 'f' to indicate that it is old. If you haven't seen this image before, press 'j' to indicate the image is new.",Press space to continue!,instruction_images/oldBook.png,None,None,None,None,None,None,None,J,F,None,old,new,,,,,,,,,,,,,,,,,,,,,,,,,,,,,,,,,,,,,,,,,,,,,,,,,,,,,,,,,,,,,,,,,,,,,,,,,0,0,0,0,,,,,,,,,,,,,,,,,,,,,,,,,,,,,,,,,,,,,,,,,,,,,,,,,13.662866716040298,None,13.662866716040298,None,space,0.05972215096699074,13.662866716040298,None,13.662866716040298,None,13.662866716040298,None,13.662866716040298,None,13.662866716040298,None,13.662866716040298,None,,,,,,,,,,,,,,,,,,,,,,,,,34,001,,,2020_Sep_10_1940,reactive_intentional_encoding_looped,3.2.4,59.88557076305974,
"Since you have seen the book before, you should select 'f' to indicate the book is old.",Press space to continue!,instruction_images/oldBook.png,None,None,None,None,None,None,None,J,F,None,old,new,,,,,,,,,,,,,,,,,,,,,,,,,,,,,,,,,,,,,,,,,,,,,,,,,,,,,,,,,,,,,,,,,,,,,,,,,0,1,1,1,,,,,,,,,,,,,,,,,,,,,,,,,,,,,,,,,,,,,,,,,,,,,,,,,13.774339232011698,None,13.774339232011698,None,space,0.32744990795617923,13.774339232011698,None,13.774339232011698,None,13.774339232011698,None,13.774339232011698,None,13.774339232011698,None,13.774339232011698,None,,,,,,,,,,,,,,,,,,,,,,,,,34,001,,,2020_Sep_10_1940,reactive_intentional_encoding_looped,3.2.4,59.88557076305974,
This test is timed. You have a limit of 2 seconds to respond. So try to respond as quickly as possible.,Press space to continue!,instruction_images/oldBook.png,None,None,None,None,None,None,None,J,F,None,old,new,,,,,,,,,,,,,,,,,,,,,,,,,,,,,,,,,,,,,,,,,,,,,,,,,,,,,,,,,,,,,,,,,,,,,,,,,0,2,2,2,,,,,,,,,,,,,,,,,,,,,,,,,,,,,,,,,,,,,,,,,,,,,,,,,14.152118513011374,None,14.152118513011374,None,space,0.22945240698754787,14.152118513011374,None,14.152118513011374,None,14.152118513011374,None,14.152118513011374,None,14.152118513011374,None,14.152118513011374,None,,,,,,,,,,,,,,,,,,,,,,,,,34,001,,,2020_Sep_10_1940,reactive_intentional_encoding_looped,3.2.4,59.88557076305974,
"First we will do a practice. When you’re ready to start the practice, press the space bar. ",Press space to continue!,instruction_images/oldBook.png,None,None,None,None,None,None,None,J,F,None,old,new,,,,,,,,,,,,,,,,,,,,,,,,,,,,,,,,,,,,,,,,,,,,,,,,,,,,,,,,,,,,,,,,,,,,,,,,,0,3,3,3,,,,,,,,,,,,,,,,,,,,,,,,,,,,,,,,,,,,,,,,,,,,,,,,,14.440665941045154,None,14.440665941045154,None,space,0.2679308360093273,14.440665941045154,None,14.440665941045154,None,14.440665941045154,None,14.440665941045154,None,14.440665941045154,None,14.440665941045154,None,,,,,,,,,,,,,,,,,,,,,,,,,34,001,,,2020_Sep_10_1940,reactive_intentional_encoding_looped,3.2.4,59.88557076305974,
There are now only a few more questions left! Please press space to continue.,Press space to continue!,instruction_images/oldBook.png,None,None,None,None,None,None,None,J,F,None,old,new,,,,,,,,,,,,,,,,,,,,,,,,,,,,,,,,,,,,,,,,,,,,,,,,,,,,,,,,,,,,,,,,,,,,,,,,,0,4,4,4,,,,,,,,,,,,,,,,,,,,,,,,,,,,,,,,,,,,,,,,,,,,,,,,,14.774815256008878,None,14.774815256008878,None,space,0.2678429009974934,14.774815256008878,None,14.774815256008878,None,14.774815256008878,None,14.774815256008878,None,14.774815256008878,None,14.774815256008878,None,,,,,,,,,,,,,,,,,,,,,,,,,34,001,,,2020_Sep_10_1940,reactive_intentional_encoding_looped,3.2.4,59.88557076305974,
,,,,,,,,,,,,,,,,,,,,,,,,,,,,,,,,,,,,,,,,,,,,,,,,,,,,,,,,,,,,,,,,,,,,,,,,,,,,,,,,,,,,,,,,,,,,,,,,,,,,,,,,,,,,,,,,,,,,,,,,,,,,,,,,,,,,,,,,,,,,,,,,,,,,,,,,,,,,,15.090767458023038,None,space,0.42233230301644653,15.090767458023038,None,,,,,,,,,,,,,,,,,,,34,001,,,2020_Sep_10_1940,reactive_intentional_encoding_looped,3.2.4,59.88557076305974,
There are now only a few more questions left! Please press space to continue.,Press space to continue!,instruction_images/oldBook.png,None,None,None,None,None,None,None,J,F,None,old,new,,,,,,,,,,,,,,,,,,,,,,,,,,,,,,,,,,,,,,,,,,,,,,,,,,,,,,,,,,,,,,,,,,,,,,,,,,,,,,,,,,,,,0,0,0,0,,,,,,,,,,,,,,,,,,,,,,,,,,,,,,,,,,,,,,,,,,,,,,,,,,,,,,,,,,,,,15.090767458023038,None,15.606863739027176,None,space,6.043113862979226,15.606863739027176,None,15.606863739027176,None,15.606863739027176,None,15.606863739027176,None,15.606863739027176,None,15.606863739027176,None,34,001,,,2020_Sep_10_1940,reactive_intentional_encoding_looped,3.2.4,59.88557076305974,
"During the task you first learned a list a image pairs - let's call these pairs Image A and B. For example, you learned that the book (image A) was paired with the woman, Jessica alba (Image B).Later in the task, you learned that one of the images in the pair (Image A - the book) was paired with a different image (Image C - the animal, alpaca). ","Question: When you learned the later pairs (images A and C), like the book and alpaca, did you actively think about the earlier pair that you had learned, like the book and the girl, Jessica Alba (images A and B)?  Press 'y' for yes and 'n' for no.",instruction_images/oldBook.png,instruction_images/jessica_alba.jpg,instruction_images/oldBook.png,instruction_images/alpaca_fo.jpg,None,None,None,None,None,None,None,None,None,,,,,,,,,,,,,,,,,,,,,,,,,,,,,,,,,,,,,,,,,,,,,,,,,,,,,,,,,,,,,,,,,,,,,,,,,,,,,,,,,,,,,0,1,1,1,,,,,,,,,,,,,,,,,,,,,,,,,,,,,,,,,,,,,,,,,,,,,,,,,,,,,,,,,,,,,,,21.95725824299734,None,space,9.23571609298233,21.95725824299734,None,21.95725824299734,None,21.95725824299734,None,21.95725824299734,None,21.95725824299734,None,21.95725824299734,None,34,001,,,2020_Sep_10_1940,reactive_intentional_encoding_looped,3.2.4,59.88557076305974,
"If you answered no to the earlier question, press space to proceed. If you answered yes, that you actively thought about the earlier pairs (Images A and B) when you learned the later pairs (Images A and C), did you mostly think about the connection between image pairs when you saw  the later pairs (Image A and C), or during the arrow task, or both? Press 'J' if you mostly thought about the connection between image pairs when you learned the later image pairs. Press 'K' if you mostly thought about the connection between image pairs during the arrow task. Press 'L' if you thought about the connections between the image pairs when you learned the later pair AND during the arrow task.",None,None,None,None,None,None,None,None,None,None,None,None,None,None,,,,,,,,,,,,,,,,,,,,,,,,,,,,,,,,,,,,,,,,,,,,,,,,,,,,,,,,,,,,,,,,,,,,,,,,,,,,,,,,,,,,,0,2,2,2,,,,,,,,,,,,,,,,,,,,,,,,,,,,,,,,,,,,,,,,,,,,,,,,,,,,,,,,,,,,,,,31.328943469037767,None,space,1.695821496017743,31.328943469037767,None,31.328943469037767,None,31.328943469037767,None,31.328943469037767,None,31.328943469037767,None,31.328943469037767,None,34,001,,,2020_Sep_10_1940,reactive_intentional_encoding_looped,3.2.4,59.88557076305974,
"During the arrow task, please rate your boredom on a scale of 1 to 7. With 1 being not bored at all, 4 being neutral, and 7 being completely bored. ",None,None,None,None,None,None,None,None,None,None,None,None,None,None,,,,,,,,,,,,,,,,,,,,,,,,,,,,,,,,,,,,,,,,,,,,,,,,,,,,,,,,,,,,,,,,,,,,,,,,,,,,,,,,,,,,,0,3,3,3,,,,,,,,,,,,,,,,,,,,,,,,,,,,,,,,,,,,,,,,,,,,,,,,,,,,,,,,,,,,,,,33.108191551000345,None,space,0.6766004119999707,33.108191551000345,None,33.108191551000345,None,33.108191551000345,None,33.108191551000345,None,33.108191551000345,None,33.108191551000345,None,34,001,,,2020_Sep_10_1940,reactive_intentional_encoding_looped,3.2.4,59.88557076305974,
"How interested were you in the task? With 1 being not interested at all, 4 being neutral, and 7 being very interested.",None,None,None,None,None,None,None,None,None,None,None,None,None,None,,,,,,,,,,,,,,,,,,,,,,,,,,,,,,,,,,,,,,,,,,,,,,,,,,,,,,,,,,,,,,,,,,,,,,,,,,,,,,,,,,,,,0,4,4,4,,,,,,,,,,,,,,,,,,,,,,,,,,,,,,,,,,,,,,,,,,,,,,,,,,,,,,,,,,,,,,,33.85701826203149,None,space,8.130219376995228,33.85701826203149,None,33.85701826203149,None,33.85701826203149,None,33.85701826203149,None,33.85701826203149,None,33.85701826203149,None,34,001,,,2020_Sep_10_1940,reactive_intentional_encoding_looped,3.2.4,59.88557076305974,
"How often did your mind drift away from the task during the arrow task to other concerns or daydreams. Please rate your mind wandering on a scale of 1 to 7. With 1 being not at mind wandering and totally focused on the task the whole time, 4 being sometimes daydreaming and thinking about other concerns, and 7 being daydreaming and/or thinking about other concerns the majority of the time.",None,None,None,None,None,None,None,None,None,None,None,None,None,None,,,,,,,,,,,,,,,,,,,,,,,,,,,,,,,,,,,,,,,,,,,,,,,,,,,,,,,,,,,,,,,,,,,,,,,,,,,,,,,,,,,,,0,5,5,5,,,,,,,,,,,,,,,,,,,,,,,,,,,,,,,,,,,,,,,,,,,,,,,,,,,,,,,,,,,,,,,42.0786755180452,None,space,2.4749754119548015,42.0786755180452,None,42.0786755180452,None,42.0786755180452,None,42.0786755180452,None,42.0786755180452,None,42.0786755180452,None,34,001,,,2020_Sep_10_1940,reactive_intentional_encoding_looped,3.2.4,59.88557076305974,
"How motivated were you to do well on the memory task? With 1 being not motivated at all, 4 being a kind of motivated and 7 being very motivated to do well on the memory task.",None,None,None,None,None,None,None,None,None,None,None,None,None,None,,,,,,,,,,,,,,,,,,,,,,,,,,,,,,,,,,,,,,,,,,,,,,,,,,,,,,,,,,,,,,,,,,,,,,,,,,,,,,,,,,,,,0,6,6,6,,,,,,,,,,,,,,,,,,,,,,,,,,,,,,,,,,,,,,,,,,,,,,,,,,,,,,,,,,,,,,,44.62393449305091,None,space,1.4356589599628933,44.62393449305091,None,44.62393449305091,None,44.62393449305091,None,44.62393449305091,None,44.62393449305091,None,44.62393449305091,None,34,001,,,2020_Sep_10_1940,reactive_intentional_encoding_looped,3.2.4,59.88557076305974,
"How much stress did you experience this week? With 1 being no stress, 4 being some stress, and 7 being a lot of stress?",None,None,None,None,None,None,None,None,None,None,None,None,None,None,,,,,,,,,,,,,,,,,,,,,,,,,,,,,,,,,,,,,,,,,,,,,,,,,,,,,,,,,,,,,,,,,,,,,,,,,,,,,,,,,,,,,0,7,7,7,,,,,,,,,,,,,,,,,,,,,,,,,,,,,,,,,,,,,,,,,,,,,,,,,,,,,,,,,,,,,,,46.133525590004865,None,space,0.3691401579999365,46.133525590004865,None,46.133525590004865,None,46.133525590004865,None,46.133525590004865,None,46.133525590004865,None,46.133525590004865,None,34,001,,,2020_Sep_10_1940,reactive_intentional_encoding_looped,3.2.4,59.88557076305974,
