instructions1,Instructions2,Image1,Image2,Image3,Image_4,position_1x,position_1y,position_2x,position_2y,J_key,K_key,L_key,yes_text,no_text,trial_in_list,image_a,location1,correct_category_pair,location2,location3,correct_image,List,trial_num,block,Trial,ImageA,ImageB,ImageC,CategoryB,ListNum,instruction_intentional_encoding.thisRepN,instruction_intentional_encoding.thisTrialN,instruction_intentional_encoding.thisN,instruction_intentional_encoding.thisIndex,practice_trials_intentional_encoding.thisRepN,practice_trials_intentional_encoding.thisTrialN,practice_trials_intentional_encoding.thisN,practice_trials_intentional_encoding.thisIndex,trials.thisRepN,trials.thisTrialN,trials.thisN,trials.thisIndex,trials_4.thisRepN,trials_4.thisTrialN,trials_4.thisN,trials_4.thisIndex,trials_2.thisRepN,trials_2.thisTrialN,trials_2.thisN,trials_2.thisIndex,trials_5.thisRepN,trials_5.thisTrialN,trials_5.thisN,trials_5.thisIndex,text.started,text.stopped,instructions_text2.started,instructions_text2.stopped,response.keys,response.rt,response.started,response.stopped,image1.started,image1.stopped,image2.started,image2.stopped,J_press_instructions.started,J_press_instructions.stopped,F_key_instruct.started,F_key_instruct.stopped,arrow.started,arrow.stopped,yes_press.started,yes_press.stopped,no_press.started,no_press.stopped,imageA.started,imageA.stopped,b_image.started,b_image.stopped,text_9.started,text_9.stopped,key_resp_3.keys,key_resp_3.rt,key_resp_3.started,key_resp_3.stopped,image_pair1.started,image_pair1.stopped,image_pair2.started,image_pair2.stopped,text_3.started,text_3.stopped,text_4.started,text_4.stopped,image_3.started,image_3.stopped,key_resp.keys,key_resp.rt,key_resp.started,key_resp.stopped,text_5.started,text_5.stopped,text_8.started,text_8.stopped,key_resp_2.keys,key_resp_2.rt,key_resp_2.started,key_resp_2.stopped,image.started,image.stopped,image_2.started,image_2.stopped,image_5.started,image_5.stopped,image_6.started,image_6.stopped,K.started,K.stopped,L.started,L.stopped,J.started,J.stopped,image_a_practice.started,image_a_practice.stopped,afc_test_practice.started,afc_test_practice.stopped,location1_practice.started,location1_practice.stopped,location2_practice.started,location2_practice.stopped,location3_practice.started,location3_practice.stopped,j_key_test_practice.started,j_key_test_practice.stopped,K_key_practice.started,K_key_practice.stopped,L_key_practice.started,L_key_practice.stopped,image_11.started,image_11.stopped,image_12.started,image_12.stopped,text_7.started,text_7.stopped,text_17.started,text_17.stopped,key_resp_13.keys,key_resp_13.rt,key_resp_13.started,key_resp_13.stopped,fixation_.started,fixation_.stopped,participant,sex,age,,date,expName,psychopyVersion,frameRate,
"Welcome to the memory game! In this game, you must learn which images go together.",Press space to continue!,None,None,None,None,0,0.3,0.0,-0.4, , , , , ,,,,,,,,,,,,,,,,,0,0,0,0,,,,,,,,,,,,,,,,,,,,,8.702283304010052,None,8.702283304010052,None,space,0.532548532995861,8.702283304010052,None,8.702283304010052,None,8.702283304010052,None,8.652044652000768,None,8.652044652000768,None,8.652044652000768,None,8.652044652000768,None,8.652044652000768,None,,,,,,,,,,,,,,,,,,,,,,,,,,,,,,,,,,,,,,,,,,,,,,,,,,,,,,,,,,,,,,,,,,,,,,,,,,,,,43,001,,,2020_Sep_05_1809,reactive_intentional_encoding_looped,3.2.4,59.66474511326345,
"You will see two images on the left and right side of the screen, like this.",Press space to continue!,instruction_images/jessica_alba.jpg,instruction_images/oldBook.png,None,None,0,0.3,0.0,-0.4, , , , , ,,,,,,,,,,,,,,,,,0,1,1,1,,,,,,,,,,,,,,,,,,,,,9.418813260999741,None,9.418813260999741,None,space,0.2738752290024422,9.418813260999741,None,9.418813260999741,None,9.418813260999741,None,9.285839058022248,None,9.285839058022248,None,9.285839058022248,None,9.285839058022248,None,9.285839058022248,None,,,,,,,,,,,,,,,,,,,,,,,,,,,,,,,,,,,,,,,,,,,,,,,,,,,,,,,,,,,,,,,,,,,,,,,,,,,,,43,001,,,2020_Sep_05_1809,reactive_intentional_encoding_looped,3.2.4,59.66474511326345,
Your job is to remember that these images go together. ,Press space to continue!,instruction_images/jessica_alba.jpg,instruction_images/oldBook.png,None,None,0,0.3,0.0,-0.4, , , , , ,,,,,,,,,,,,,,,,,0,2,2,2,,,,,,,,,,,,,,,,,,,,,9.86162124000839,None,9.86162124000839,None,space,0.17508916300721467,9.86162124000839,None,9.86162124000839,None,9.86162124000839,None,9.785038191999774,None,9.785038191999774,None,9.785038191999774,None,9.785038191999774,None,9.785038191999774,None,,,,,,,,,,,,,,,,,,,,,,,,,,,,,,,,,,,,,,,,,,,,,,,,,,,,,,,,,,,,,,,,,,,,,,,,,,,,,43,001,,,2020_Sep_05_1809,reactive_intentional_encoding_looped,3.2.4,59.66474511326345,
"You could link them through a story. For example, jessica alba likes books.",Press space to continue!,instruction_images/jessica_alba.jpg,instruction_images/oldBook.png,None,None,0,0.3,0.0,-0.4, , , , , ,,,,,,,,,,,,,,,,,0,3,3,3,,,,,,,,,,,,,,,,,,,,,10.189535932004219,None,10.189535932004219,None,space,0.21717548297601752,10.189535932004219,None,10.189535932004219,None,10.189535932004219,None,10.118092842021724,None,10.118092842021724,None,10.118092842021724,None,10.118092842021724,None,10.118092842021724,None,,,,,,,,,,,,,,,,,,,,,,,,,,,,,,,,,,,,,,,,,,,,,,,,,,,,,,,,,,,,,,,,,,,,,,,,,,,,,43,001,,,2020_Sep_05_1809,reactive_intentional_encoding_looped,3.2.4,59.66474511326345,
"After you see the images, we will test your memory.",Press space to continue!,instruction_images/jessica_alba.jpg,instruction_images/oldBook.png,None,None,0,0.3,0.0,-0.4, , , , , ,,,,,,,,,,,,,,,,,0,4,4,4,,,,,,,,,,,,,,,,,,,,,10.535194741998566,None,10.535194741998566,None,space,0.21546125499298796,10.535194741998566,None,10.535194741998566,None,10.535194741998566,None,10.469091304024914,None,10.469091304024914,None,10.469091304024914,None,10.469091304024914,None,10.469091304024914,None,,,,,,,,,,,,,,,,,,,,,,,,,,,,,,,,,,,,,,,,,,,,,,,,,,,,,,,,,,,,,,,,,,,,,,,,,,,,,43,001,,,2020_Sep_05_1809,reactive_intentional_encoding_looped,3.2.4,59.66474511326345,
"Get ready to see the images! Each pair will only last on the screen for a few seconds, so pay attention.",Press space to continue!,instruction_images/jessica_alba.jpg,instruction_images/oldBook.png,None,None,0,0.3,0.0,-0.4, , , , , ,,,,,,,,,,,,,,,,,0,5,5,5,,,,,,,,,,,,,,,,,,,,,10.938996273005614,None,10.938996273005614,None,space,0.1759228279988747,10.938996273005614,None,10.938996273005614,None,10.938996273005614,None,10.842045583005529,None,10.842045583005529,None,10.842045583005529,None,10.842045583005529,None,10.842045583005529,None,,,,,,,,,,,,,,,,,,,,,,,,,,,,,,,,,,,,,,,,,,,,,,,,,,,,,,,,,,,,,,,,,,,,,,,,,,,,,43,001,,,2020_Sep_05_1809,reactive_intentional_encoding_looped,3.2.4,59.66474511326345,
We'll first do a practice to get you familiar with the game.,Press space to continue!,instruction_images/jessica_alba.jpg,instruction_images/oldBook.png,None,None,0,0.3,0.0,-0.4, , , , , ,,,,,,,,,,,,,,,,,0,6,6,6,,,,,,,,,,,,,,,,,,,,,11.252219579007942,None,11.252219579007942,None,space,0.2624531030014623,11.252219579007942,None,11.252219579007942,None,11.252219579007942,None,11.172864908003248,None,11.172864908003248,None,11.172864908003248,None,11.172864908003248,None,11.172864908003248,None,,,,,,,,,,,,,,,,,,,,,,,,,,,,,,,,,,,,,,,,,,,,,,,,,,,,,,,,,,,,,,,,,,,,,,,,,,,,,43,001,,,2020_Sep_05_1809,reactive_intentional_encoding_looped,3.2.4,59.66474511326345,
"When you're ready to start the practice, press space!",Press space to continue!,None,None,None,None,0,0.0,None,None, , , , , ,,,,,,,,,,,,,,,,,0,7,7,7,,,,,,,,,,,,,,,,,,,,,11.618575254018651,None,11.618575254018651,None,space,0.6961339570116252,11.618575254018651,None,11.618575254018651,None,11.618575254018651,None,11.56814725600998,None,11.56814725600998,None,11.56814725600998,None,11.56814725600998,None,11.56814725600998,None,,,,,,,,,,,,,,,,,,,,,,,,,,,,,,,,,,,,,,,,,,,,,,,,,,,,,,,,,,,,,,,,,,,,,,,,,,,,,43,001,,,2020_Sep_05_1809,reactive_intentional_encoding_looped,3.2.4,59.66474511326345,
,,,,,,,,,,,,,,,1,images/giftbow01.png,images/willie_nelson_b.jpg,object-face,images/electricoutlet.png,images/chick.jpg,images/willie_nelson_b.jpg,0,0,practice,,,,,,,,,,,0,0,0,0,,,,,,,,,,,,,,,,,,,,,,,,,,,,,,,,,,,,,,,12.392165850003948,None,12.392165850003948,None,,,,,,,,,,,,,,,,,,,,,,,,,,,,,,,,,,,,,,,,,,,,,,,,,,,,,,,,,,,,,,,,,,,,,,,,,43,001,,,2020_Sep_05_1809,reactive_intentional_encoding_looped,3.2.4,59.66474511326345,
,,,,,,,,,,,,,,,2,images/globe.png,images/earrings_dangling.jpg,object-scene,images/wrigley_field_b.jpg,images/barrel.jpg,images/wrigley_field_b.jpg,0,0,practice,,,,,,,,,,,0,1,1,1,,,,,,,,,,,,,,,,,,,,,,,,,,,,,,,,,,,,,,,12.509454704006203,None,12.509454704006203,None,,,,,,,,,,,,,,,,,,,,,,,,,,,,,,,,,,,,,,,,,,,,,,,,,,,,,,,,,,,,,,,,,,,,,,,,,43,001,,,2020_Sep_05_1809,reactive_intentional_encoding_looped,3.2.4,59.66474511326345,
,,,,,,,,,,,,,,,3,images/glassBall.jpg,images/westminster_abbey_a.jpg,object-scene,images/beetle.png,images/statue_of_liberty.jpg,images/westminster_abbey_a.jpg,0,0,practice,,,,,,,,,,,0,2,2,2,,,,,,,,,,,,,,,,,,,,,,,,,,,,,,,,,,,,,,,12.618633531004889,None,12.618633531004889,None,,,,,,,,,,,,,,,,,,,,,,,,,,,,,,,,,,,,,,,,,,,,,,,,,,,,,,,,,,,,,,,,,,,,,,,,,43,001,,,2020_Sep_05_1809,reactive_intentional_encoding_looped,3.2.4,59.66474511326345,
,,,,,,,,,,,,,,,4,images/gazebo_wooden.png,images/ray_romano.jpg,object-face,images/john_stamos.jpg,images/natalie_portman.jpg,images/natalie_portman.jpg,0,0,practice,,,,,,,,,,,0,3,3,3,,,,,,,,,,,,,,,,,,,,,,,,,,,,,,,,,,,,,,,12.724852175015258,None,12.724852175015258,None,,,,,,,,,,,,,,,,,,,,,,,,,,,,,,,,,,,,,,,,,,,,,,,,,,,,,,,,,,,,,,,,,,,,,,,,,43,001,,,2020_Sep_05_1809,reactive_intentional_encoding_looped,3.2.4,59.66474511326345,
,,,,,,,,,,,,,,,5,images/helicopter.jpg,images/bench_park.png,object-face,images/bird_parrot.png,images/julia_louis_dreyfus.jpg,images/julia_louis_dreyfus.jpg,0,0,practice,,,,,,,,,,,0,4,4,4,,,,,,,,,,,,,,,,,,,,,,,,,,,,,,,,,,,,,,,12.80181228701258,None,12.80181228701258,None,,,,,,,,,,,,,,,,,,,,,,,,,,,,,,,,,,,,,,,,,,,,,,,,,,,,,,,,,,,,,,,,,,,,,,,,,43,001,,,2020_Sep_05_1809,reactive_intentional_encoding_looped,3.2.4,59.66474511326345,
,,,,,,,,,,,,,,,,,,,,,,,,,,,,,,,,,,,,,,,,,,,,,,,,,,,,,,,,,,,,,,,,,,,,,,,,,,,,,,,,,12.844665659009479,None,space,0.4057646629808005,13.31900442900951,None,,,,,,,,,,,,,,,,,,,,,,,,,,,,,,,,,,,,,,,,,,,,,,,,,,,,,,,,,,,,,,,,,,,43,001,,,2020_Sep_05_1809,reactive_intentional_encoding_looped,3.2.4,59.66474511326345,
,,,,,,,,,,,,,,,,,,,,,,,,,1,images/sundae_banana.jpg,images/eiffel_tower_c.jpg,images/mitten.png,object-scene,None,,,,,,,,,0,0,0,0,,,,,,,,,,,,,,,,,,,,,,,,,,,,,,,,,,,,,,,,,,,,,14.26994139002636,None,14.26994139002636,None,,,,,,,,,,,,,,,,,,,,,,,,,,,,,,,,,,,,,,,,,,,,,,,,,,,,,,,,,,,,,,,43,001,,,2020_Sep_05_1809,reactive_intentional_encoding_looped,3.2.4,59.66474511326345,
,,,,,,,,,,,,,,,,,,,,,,,,,2,images/castle_sand.png,images/gwen_stefani_c.jpg,images/mask_hockeygoalie.png,object-face,None,,,,,,,,,0,1,1,1,,,,,,,,,,,,,,,,,,,,,,,,,,,,,,,,,,,,,,,,,,,,,15.270102170004975,None,15.270102170004975,None,,,,,,,,,,,,,,,,,,,,,,,,,,,,,,,,,,,,,,,,,,,,,,,,,,,,,,,,,,,,,,,43,001,,,2020_Sep_05_1809,reactive_intentional_encoding_looped,3.2.4,59.66474511326345,
,,,,,,,,,,,,,,,,,,,,,,,,,3,images/checkers_board.png,images/golden_gate_bridge_b.jpg,images/mop.png,object-scene,None,,,,,,,,,0,2,2,2,,,,,,,,,,,,,,,,,,,,,,,,,,,,,,,,,,,,,,,,,,,,,16.270882904005703,None,16.270882904005703,None,,,,,,,,,,,,,,,,,,,,,,,,,,,,,,,,,,,,,,,,,,,,,,,,,,,,,,,,,,,,,,,43,001,,,2020_Sep_05_1809,reactive_intentional_encoding_looped,3.2.4,59.66474511326345,
,,,,,,,,,,,,,,,,,,,,,,,,,4,images/figurine_ballerina.jpg,images/courtney_cox_c.jpg,images/pan_muffin.png,object-face,None,,,,,,,,,0,3,3,3,,,,,,,,,,,,,,,,,,,,,,,,,,,,,,,,,,,,,,,,,,,,,17.284381861012662,None,17.284381861012662,None,,,,,,,,,,,,,,,,,,,,,,,,,,,,,,,,,,,,,,,,,,,,,,,,,,,,,,,,,,,,,,,43,001,,,2020_Sep_05_1809,reactive_intentional_encoding_looped,3.2.4,59.66474511326345,
,,,,,,,,,,,,,,,,,,,,,,,,,5,images/flute_wooden.jpg,images/jimmy_fallon.jpg,images/mechanic.jpg,object-face,None,,,,,,,,,0,4,4,4,,,,,,,,,,,,,,,,,,,,,,,,,,,,,,,,,,,,,,,,,,,,,18.28511784900911,None,18.28511784900911,None,,,,,,,,,,,,,,,,,,,,,,,,,,,,,,,,,,,,,,,,,,,,,,,,,,,,,,,,,,,,,,,43,001,,,2020_Sep_05_1809,reactive_intentional_encoding_looped,3.2.4,59.66474511326345,
,,,,,,,,,,,,,,,,,,,,,,,,,6,images/fuzzydice.jpg,images/ellen_degeneres_b.jpg,images/soap.png,object-face,None,,,,,,,,,0,5,5,5,,,,,,,,,,,,,,,,,,,,,,,,,,,,,,,,,,,,,,,,,,,,,19.252300881023984,None,19.252300881023984,None,,,,,,,,,,,,,,,,,,,,,,,,,,,,,,,,,,,,,,,,,,,,,,,,,,,,,,,,,,,,,,,43,001,,,2020_Sep_05_1809,reactive_intentional_encoding_looped,3.2.4,59.66474511326345,
,,,,,,,,,,,,,,,,,,,,,,,,,7,images/dog_toy.png,images/queen_elizabeth_a.jpg,images/paper towel.jpg,object-face,None,,,,,,,,,0,6,6,6,,,,,,,,,,,,,,,,,,,,,,,,,,,,,,,,,,,,,,,,,,,,,20.250953405018663,19.76342548301909,20.250953405018663,19.76342548301909,,,,,,,,,,,,,,,,,,,,,,,,,,,,,,,,,,,,,,,,,,,,,,,,,,,,,,,,,,,,,,,43,001,,,2020_Sep_05_1809,reactive_intentional_encoding_looped,3.2.4,59.66474511326345,
,,,,,,,,,,,,,,,,,,,,,,,,,8,images/champagne.jpg,images/arches_national_park_a.jpg,images/noisemaker.jpg,object-scene,None,,,,,,,,,0,7,7,7,,,,,,,,,,,,,,,,,,,,,,,,,,,,,,,,,,,,,,,,,,,,,21.252436128008412,None,21.252436128008412,None,,,,,,,,,,,,,,,,,,,,,,,,,,,,,,,,,,,,,,,,,,,,,,,,,,,,,,,,,,,,,,,43,001,,,2020_Sep_05_1809,reactive_intentional_encoding_looped,3.2.4,59.66474511326345,
,,,,,,,,,,,,,,,,,,,,,,,,,9,images/fan.png,images/giza_pyramids_c.jpg,images/pencilCase.png,object-scene,None,,,,,,,,,0,8,8,8,,,,,,,,,,,,,,,,,,,,,,,,,,,,,,,,,,,,,,,,,,,,,22.251515615003882,None,22.251515615003882,None,,,,,,,,,,,,,,,,,,,,,,,,,,,,,,,,,,,,,,,,,,,,,,,,,,,,,,,,,,,,,,,43,001,,,2020_Sep_05_1809,reactive_intentional_encoding_looped,3.2.4,59.66474511326345,
,,,,,,,,,,,,,,,,,,,,,,,,,10,images/mannequin.jpg,images/julia_roberts_c.jpg,images/newspaper_stack.png,object-face,None,,,,,,,,,0,9,9,9,,,,,,,,,,,,,,,,,,,,,,,,,,,,,,,,,,,,,,,,,,,,,23.251149720017565,None,23.251149720017565,None,,,,,,,,,,,,,,,,,,,,,,,,,,,,,,,,,,,,,,,,,,,,,,,,,,,,,,,,,,,,,,,43,001,,,2020_Sep_05_1809,reactive_intentional_encoding_looped,3.2.4,59.66474511326345,
,,,,,,,,,,,,,,,,,,,,,,,,,11,images/flipflopsBlue.png,images/flatiron_building_b.jpg,images/paddle.png,object-scene,None,,,,,,,,,0,10,10,10,,,,,,,,,,,,,,,,,,,,,,,,,,,,,,,,,,,,,,,,,,,,,24.251376216998324,23.772864199010655,24.251376216998324,23.772864199010655,,,,,,,,,,,,,,,,,,,,,,,,,,,,,,,,,,,,,,,,,,,,,,,,,,,,,,,,,,,,,,,43,001,,,2020_Sep_05_1809,reactive_intentional_encoding_looped,3.2.4,59.66474511326345,
,,,,,,,,,,,,,,,,,,,,,,,,,12,images/bib.png,images/glacier_national_park_c.jpg,images/paintcan.jpg,object-scene,None,,,,,,,,,0,11,11,11,,,,,,,,,,,,,,,,,,,,,,,,,,,,,,,,,,,,,,,,,,,,,25.25230493801064,24.772324637015117,25.25230493801064,24.772324637015117,,,,,,,,,,,,,,,,,,,,,,,,,,,,,,,,,,,,,,,,,,,,,,,,,,,,,,,,,,,,,,,43,001,,,2020_Sep_05_1809,reactive_intentional_encoding_looped,3.2.4,59.66474511326345,
Great job! Now we will see how well you remember which images go together.,Press space to continue!,None,None,None,None,0,0.3,0.0,-0.4, , , , , ,,,,,,,,,,,,,,,,,,,,,,,,,,,,,0,0,0,0,,,,,,,,,,,,,,,,,,,,,,,,,,,,,,,,,,,,,,,,,,,,,25.82775466502062,None,25.82775466502062,None,25.82775466502062,None,space,0.7946622899908107,25.85848420902039,None,,,,,,,,,,,,,,,,,,,,,,,,,,,,,,,,,,,,,,,,,,,,,,,,,,,,,43,001,,,2020_Sep_05_1809,reactive_intentional_encoding_looped,3.2.4,59.66474511326345,
"You will first see one image, like below. Your job is to recall the image that it was paired with when you see this image.",Press space to continue!,instruction_images/jessica_alba.jpg,None,None,None,0,0.3,0.0,-0.4, , , , , ,,,,,,,,,,,,,,,,,,,,,,,,,,,,,0,1,1,1,,,,,,,,,,,,,,,,,,,,,,,,,,,,,,,,,,,,,,,,,,,,,26.75179764101631,None,26.75179764101631,None,26.75179764101631,None,space,0.39489809298538603,26.80093391201808,None,,,,,,,,,,,,,,,,,,,,,,,,,,,,,,,,,,,,,,,,,,,,,,,,,,,,,43,001,,,2020_Sep_05_1809,reactive_intentional_encoding_looped,3.2.4,59.66474511326345,
"Here, you should recall the book.",Press space to continue!,instruction_images/jessica_alba.jpg,None,None,None,0,0.3,0.0,-0.4,J,K,L, , ,,,,,,,,,,,,,,,,,,,,,,,,,,,,,0,2,2,2,,,,,,,,,,,,,,,,,,,,,,,,,,,,,,,,,,,,,,,,,,,,,27.291538593010046,None,27.291538593010046,None,27.291538593010046,None,space,0.28267168198362924,27.325138907006476,None,,,,,,,,,,,,,,,,,,,,,,,,,,,,,,,,,,,,,,,,,,,,,,,,,,,,,43,001,,,2020_Sep_05_1809,reactive_intentional_encoding_looped,3.2.4,59.66474511326345,
"Then, you will see 3 other images and your job is to select the correct image pair. Use the keys 'J', 'K', or 'L' to indicate your choice.",Press space to continue!,instruction_images/jessica_alba.jpg,instruction_images/oldBook.png,instruction_images/alpaca_fo.jpg,instruction_images/antlers.jpg,0,0.3,0.0,-0.4,J,K,L, , ,,,,,,,,,,,,,,,,,,,,,,,,,,,,,,,,,0,0,0,0,,,,,,,,,,,,,,,,,,,,,,,,,,,,,,,,,,,,,,,,,,,,,,,,,,,27.81856625401997,None,27.81856625401997,None,space,0.5184289159951732,28.09060989000136,None,27.81856625401997,None,27.81856625401997,None,27.81856625401997,None,27.81856625401997,None,27.81856625401997,None,27.81856625401997,None,27.81856625401997,None,,,,,,,,,,,,,,,,,,,,,,,,,,,,,,,43,001,,,2020_Sep_05_1809,reactive_intentional_encoding_looped,3.2.4,59.66474511326345,
"Here, you should press 'L' because the woman, Jessica Alba, was paired with the book.",Press 'L' to continue!,None,instruction_images/oldBook.png,instruction_images/alpaca_fo.jpg,instruction_images/antlers.jpg,0,0.3,0.0,-0.4,J,K,L, , ,,,,,,,,,,,,,,,,,,,,,,,,,,,,,,,,,0,1,1,1,,,,,,,,,,,,,,,,,,,,,,,,,,,,,,,,,,,,,,,,,,,,,,,,,,,28.778346168022836,None,28.778346168022836,None,space,0.4370450449932832,29.0849894490093,None,28.778346168022836,None,28.778346168022836,None,28.778346168022836,None,28.778346168022836,None,28.778346168022836,None,28.778346168022836,None,28.778346168022836,None,,,,,,,,,,,,,,,,,,,,,,,,,,,,,,,43,001,,,2020_Sep_05_1809,reactive_intentional_encoding_looped,3.2.4,59.66474511326345,
This portion is timed. Respond quickly and think of your answer as soon as you see the first image. ,Press space to continue!,None,instruction_images/oldBook.png,instruction_images/alpaca_fo.jpg,instruction_images/antlers.jpg,0,0.3,0.0,-0.4,J,K,L, , ,,,,,,,,,,,,,,,,,,,,,,,,,,,,,,,,,0,2,2,2,,,,,,,,,,,,,,,,,,,,,,,,,,,,,,,,,,,,,,,,,,,,,,,,,,,29.652922462002607,None,29.652922462002607,None,space,0.36111767499824055,29.9846063790028,None,29.652922462002607,None,29.652922462002607,None,29.652922462002607,None,29.652922462002607,None,29.652922462002607,None,29.652922462002607,None,29.652922462002607,None,,,,,,,,,,,,,,,,,,,,,,,,,,,,,,,43,001,,,2020_Sep_05_1809,reactive_intentional_encoding_looped,3.2.4,59.66474511326345,
"These keyboard options will remain on the screen under each image as a reminder throughout the task. If you don't know the answer, take a guess. You will then be shown the correct image. Re-study the image pairs because you will be tested a second time.",Press space to continue!,None,instruction_images/oldBook.png,instruction_images/alpaca_fo.jpg,instruction_images/antlers.jpg,0,0.3,0.0,-0.4,J,K,L, , ,,,,,,,,,,,,,,,,,,,,,,,,,,,,,,,,,0,3,3,3,,,,,,,,,,,,,,,,,,,,,,,,,,,,,,,,,,,,,,,,,,,,,,,,,,,30.572148348001065,None,30.572148348001065,None,space,0.2804011429834645,30.868413268006407,None,30.572148348001065,None,30.572148348001065,None,30.572148348001065,None,30.572148348001065,None,30.572148348001065,None,30.572148348001065,None,30.572148348001065,None,,,,,,,,,,,,,,,,,,,,,,,,,,,,,,,43,001,,,2020_Sep_05_1809,reactive_intentional_encoding_looped,3.2.4,59.66474511326345,
"First, we'll do a practice. Put your right hand on the keyboard and get ready to respond! When you're ready to start, press space.",Press space to continue!,None,instruction_images/oldBook.png,instruction_images/alpaca_fo.jpg,instruction_images/antlers.jpg,0,0.3,0.0,-0.4, , , , , ,,,,,,,,,,,,,,,,,,,,,,,,,,,,,,,,,0,4,4,4,,,,,,,,,,,,,,,,,,,,,,,,,,,,,,,,,,,,,,,,,,,,,,,,,,,31.32486209401395,None,31.32486209401395,None,space,1.7907327740103938,31.651920025004074,None,31.32486209401395,None,31.32486209401395,None,31.32486209401395,None,31.32486209401395,None,31.32486209401395,None,31.32486209401395,None,31.32486209401395,None,,,,,,,,,,,,,,,,,,,,,,,,,,,,,,,43,001,,,2020_Sep_05_1809,reactive_intentional_encoding_looped,3.2.4,59.66474511326345,
,,,,,,,,,,,,,,,1,images/giftbow01.png,images/willie_nelson_b.jpg,object-face,images/electricoutlet.png,images/chick.jpg,images/willie_nelson_b.jpg,0,0,practice,,,,,,,,,,,,,,,,,,,,,,,,,,,0,0,0,0,,,,,,,,,,,,,,,,,,,,,,,,,,,,,,,,,,,,,,,,,,,,,,,,,,,,,,,,,,,,,,,,,,,,,34.6022054060013,36.601805453014094,37.10223764600232,39.11815719201695,37.10223764600232,39.11815719201695,37.10223764600232,39.11815719201695,37.10223764600232,39.11815719201695,37.10223764600232,39.11815719201695,37.10223764600232,39.11815719201695,37.10223764600232,39.11815719201695,39.602155155007495,42.618361248023575,39.602155155007495,42.618361248023575,34.6022054060013,36.601805453014094,39.602155155007495,42.618361248023575,space,13.194800192984985,33.61883602599846,None,46.851411687006475,None,43,001,,,2020_Sep_05_1809,reactive_intentional_encoding_looped,3.2.4,59.66474511326345,
,,,,,,,,,,,,,,,2,images/globe.png,images/earrings_dangling.jpg,object-scene,images/wrigley_field_b.jpg,images/barrel.jpg,images/wrigley_field_b.jpg,0,0,practice,,,,,,,,,,,,,,,,,,,,,,,,,,,0,1,1,1,,,,,,,,,,,,,,,,,,,,,,,,,,,,,,,,,,,,,,,,,,,,,,,,,,,,,,,,,,,,,,,,,,,,,48.20147505402565,50.20191927300766,50.70222681801533,52.701984016021015,50.70222681801533,52.701984016021015,50.70222681801533,52.701984016021015,50.70222681801533,52.701984016021015,50.70222681801533,52.701984016021015,50.70222681801533,52.701984016021015,50.70222681801533,52.701984016021015,53.201639292004984,56.20191580199753,53.201639292004984,56.20191580199753,48.20147505402565,50.20191927300766,53.201639292004984,56.20191580199753,space,20.75629519499489,47.21875181701034,None,68.0025807620259,None,43,001,,,2020_Sep_05_1809,reactive_intentional_encoding_looped,3.2.4,59.66474511326345,
