instructions1,Instructions2,Image1,Image2,Image3,Image_4,position_1x,position_1y,position_2x,position_2y,J_key,K_key,L_key,yes_text,no_text,Image,image_type,category,trial_number,pair_indicator,instruction_intentional_encoding.thisRepN,instruction_intentional_encoding.thisTrialN,instruction_intentional_encoding.thisN,instruction_intentional_encoding.thisIndex,practice_trials_intentional_encoding.thisRepN,practice_trials_intentional_encoding.thisTrialN,practice_trials_intentional_encoding.thisN,practice_trials_intentional_encoding.thisIndex,trials.thisRepN,trials.thisTrialN,trials.thisN,trials.thisIndex,trials_4.thisRepN,trials_4.thisTrialN,trials_4.thisN,trials_4.thisIndex,trials_2.thisRepN,trials_2.thisTrialN,trials_2.thisN,trials_2.thisIndex,trials_5.thisRepN,trials_5.thisTrialN,trials_5.thisN,trials_5.thisIndex,trials_3.thisRepN,trials_3.thisTrialN,trials_3.thisN,trials_3.thisIndex,trials_6.thisRepN,trials_6.thisTrialN,trials_6.thisN,trials_6.thisIndex,trials_7.thisRepN,trials_7.thisTrialN,trials_7.thisN,trials_7.thisIndex,trials_8.thisRepN,trials_8.thisTrialN,trials_8.thisN,trials_8.thisIndex,trials_9.thisRepN,trials_9.thisTrialN,trials_9.thisN,trials_9.thisIndex,trials_10.thisRepN,trials_10.thisTrialN,trials_10.thisN,trials_10.thisIndex,trials_11.thisRepN,trials_11.thisTrialN,trials_11.thisN,trials_11.thisIndex,trials_12.thisRepN,trials_12.thisTrialN,trials_12.thisN,trials_12.thisIndex,trials_13.thisRepN,trials_13.thisTrialN,trials_13.thisN,trials_13.thisIndex,trials_15.thisRepN,trials_15.thisTrialN,trials_15.thisN,trials_15.thisIndex,trials_18.thisRepN,trials_18.thisTrialN,trials_18.thisN,trials_18.thisIndex,trials_17.thisRepN,trials_17.thisTrialN,trials_17.thisN,trials_17.thisIndex,trials_19.thisRepN,trials_19.thisTrialN,trials_19.thisN,trials_19.thisIndex,trials_20.thisRepN,trials_20.thisTrialN,trials_20.thisN,trials_20.thisIndex,trials_21.thisRepN,trials_21.thisTrialN,trials_21.thisN,trials_21.thisIndex,text_9.started,text_9.stopped,key_resp_3.keys,key_resp_3.rt,key_resp_3.started,key_resp_3.stopped,post_retreival_practice_intructions.started,post_retreival_practice_intructions.stopped,key_resp_4.keys,key_resp_4.rt,key_resp_4.started,key_resp_4.stopped,text_12.started,text_12.stopped,key_resp_6.keys,key_resp_6.rt,key_resp_6.started,key_resp_6.stopped,text_13.started,text_13.stopped,key_resp_7.keys,key_resp_7.rt,key_resp_7.started,key_resp_7.stopped,text_15.started,text_15.stopped,key_resp_8.keys,key_resp_8.rt,key_resp_8.started,key_resp_8.stopped,text_2.started,text_2.stopped,key_resp_14.keys,key_resp_14.rt,key_resp_14.started,key_resp_14.stopped,text_14.started,text_14.stopped,pressspace.started,pressspace.stopped,key_resp_16.keys,key_resp_16.rt,key_resp_16.started,key_resp_16.stopped,image_17.started,image_17.stopped,Jkey.started,Jkey.stopped,F_key.started,F_key.stopped,oldText.started,oldText.stopped,newtext.started,newtext.stopped,text_27.started,text_27.stopped,key_resp_18.keys,key_resp_18.rt,key_resp_18.started,key_resp_18.stopped,image_oldnew.started,image_oldnew.stopped,imageabc.started,imageabc.stopped,key_resp_17.keys,key_resp_17.rt,key_resp_17.started,key_resp_17.stopped,Jkey_2.started,Jkey_2.stopped,F_key_2.started,F_key_2.stopped,old.started,old.stopped,newtext_2.started,newtext_2.stopped,fixation_.started,fixation_.stopped,participant,sex,age,,date,expName,psychopyVersion,frameRate,
,,,,,,,,,,,,,,,,,,,,,,,,,,,,,,,,,,,,,,,,,,,,,,,,,,,,,,,,,,,,,,,,,,,,,,,,,,,,,,,,,,,,,,,,,,,,,,,,,,,,,,,,8.80866343100206,None,space,0.38302752299932763,9.290961739985505,None,,,,,,,,,,,,,,,,,,,,,,,,,,,,,,,,,,,,,,,,,,,,,,,,,,,,,,,,,,,,,,,,,,,,,,,,,4,001,,,2020_Sep_07_1732,reactive_intentional_encoding_looped,3.2.4,59.83401505822813,
,,,,,,,,,,,,,,,,,,,,,,,,,,,,,,,,,,,,,,,,,,,,,,,,,,,,,,,,,,,,,,,,,,,,,,,,,,,,,,,,,,,,,,,,,,,,,,,,,,,,,,,,,,,,,,9.716806226002518,None,space,0.313205468992237,9.716806226002518,None,,,,,,,,,,,,,,,,,,,,,,,,,,,,,,,,,,,,,,,,,,,,,,,,,,,,,,,,,,,,,,,,,,,4,001,,,2020_Sep_07_1732,reactive_intentional_encoding_looped,3.2.4,59.83401505822813,
,,,,,,,,,,,,,,,,,,,,,,,,,,,,,,,,,,,,,,,,,,,,,,,,,,,,,,,,,,,,,,,,,,,,,,,,,,,,,,,,,,,,,,,,,,,,,,,,,,,,,,,,,,,,,,,,,,,,10.09128774900455,None,space,0.025943740998627618,10.308018267009174,None,,,,,,,,,,,,,,,,,,,,,,,,,,,,,,,,,,,,,,,,,,,,,,,,,,,,,,,,,,,,,4,001,,,2020_Sep_07_1732,reactive_intentional_encoding_looped,3.2.4,59.83401505822813,
,,,,,,,,,,,,,,,,,,,,,,,,,,,,,,,,,,,,,,,,,,,,,,,,,,,,,,,,,,,,,,,,,,,,,,,,,,,,,,,,,,,,,,,,,,,,,,,,,,,,,,,,,,,,,,,,,,,,,,,,,,10.366140758997062,None,space,0.24298559600720182,10.366140758997062,None,,,,,,,,,,,,,,,,,,,,,,,,,,,,,,,,,,,,,,,,,,,,,,,,,,,,,,,4,001,,,2020_Sep_07_1732,reactive_intentional_encoding_looped,3.2.4,59.83401505822813,
,,,,,,,,,,,,,,,,,,,,,,,,,,,,,,,,,,,,,,,,,,,,,,,,,,,,,,,,,,,,,,,,,,,,,,,,,,,,,,,,,,,,,,,,,,,,,,,,,,,,,,,,,,,,,,,,,,,,10.657951167988358,None,space,0.01580377999925986,10.874580445990432,None,,,,,,,,,,,,,,,,,,,,,,,,,,,,,,,,,,,,,,,,,,,,,,,,,,,,,,,,,,,,,4,001,,,2020_Sep_07_1732,reactive_intentional_encoding_looped,3.2.4,59.83401505822813,
,,,,,,,,,,,,,,,,,,,,,,,,,,,,,,,,,,,,,,,,,,,,,,,,,,,,,,,,,,,,,,,,,,,,,,,,,,,,,,,,,,,,,,,,,,,,,,,,,,,,,,,,,,,,,,,,,,,,,,,,,,10.91371814199374,None,space,0.2684640560182743,10.91371814199374,None,,,,,,,,,,,,,,,,,,,,,,,,,,,,,,,,,,,,,,,,,,,,,,,,,,,,,,,4,001,,,2020_Sep_07_1732,reactive_intentional_encoding_looped,3.2.4,59.83401505822813,
,,,,,,,,,,,,,,,,,,,,,,,,,,,,,,,,,,,,,,,,,,,,,,,,,,,,,,,,,,,,,,,,,,,,,,,,,,,,,,,,,,,,,,,,,,,,,,,,,,,,,,,,,,,,,,,,,,,,11.257925248995889,None,space,0.019368968001799658,11.456624446000205,None,,,,,,,,,,,,,,,,,,,,,,,,,,,,,,,,,,,,,,,,,,,,,,,,,,,,,,,,,,,,,4,001,,,2020_Sep_07_1732,reactive_intentional_encoding_looped,3.2.4,59.83401505822813,
,,,,,,,,,,,,,,,,,,,,,,,,,,,,,,,,,,,,,,,,,,,,,,,,,,,,,,,,,,,,,,,,,,,,,,,,,,,,,,,,,,,,,,,,,,,,,,,,,,,,,,,,,,,,,,,,,,,,,,,,,,11.515292316005798,None,space,0.24173396700643934,11.515292316005798,None,,,,,,,,,,,,,,,,,,,,,,,,,,,,,,,,,,,,,,,,,,,,,,,,,,,,,,,4,001,,,2020_Sep_07_1732,reactive_intentional_encoding_looped,3.2.4,59.83401505822813,
,,,,,,,,,,,,,,,,,,,,,,,,,,,,,,,,,,,,,,,,,,,,,,,,,,,,,,,,,,,,,,,,,,,,,,,,,,,,,,,,,,,,,,,,,,,,,,,,,,,,,,,,,,,,,,,,,,,,,,,,,,,,,,,,11.791524117987137,None,space,0.23337825099588372,11.791524117987137,None,,,,,,,,,,,,,,,,,,,,,,,,,,,,,,,,,,,,,,,,,,,,,,,,,4,001,,,2020_Sep_07_1732,reactive_intentional_encoding_looped,3.2.4,59.83401505822813,
,,,,,,,,,,,,,,,,,,,,,,,,,,,,,,,,,,,,,,,,,,,,,,,,,,,,,,,,,,,,,,,,,,,,,,,,,,,,,,,,,,,,,,,,,,,,,,,,,,,,,,,,,,,,,,,,,,,,,,,,,,,,,,,,,,,,,,12.08070761198178,None,space,0.27825543502694927,12.08070761198178,None,,,,,,,,,,,,,,,,,,,,,,,,,,,,,,,,,,,,,,,,,,,4,001,,,2020_Sep_07_1732,reactive_intentional_encoding_looped,3.2.4,59.83401505822813,
"You're now almost finished the task! In the last part, you will do another memory test. You will be shown an image, like below, on each trial. Your job is to indicate whether you have seen this image before. If you have seen the image before, press 'f' to indicate that it is old. If you haven't seen this image before, press 'j' to indicate the image is new.",Press space to continue!,instruction_images/oldBook.png,None,None,None,None,None,None,None,J,F,None,old,new,,,,,,,,,,,,,,,,,,,,,,,,,,,,,,,,,,,,,,,,,,,,,,,,,,,,,,,,,,,,,,,,,,,,,,,,,,,,,,0,0,0,0,,,,,,,,,,,,,,,,,,,,,,,,,,,,,,,,,,,,,,,,,,,,,12.575023943994893,None,12.575023943994893,None,space,0.10615779701038264,12.575023943994893,None,12.575023943994893,None,12.575023943994893,None,12.575023943994893,None,12.575023943994893,None,12.575023943994893,None,,,,,,,,,,,,,,,,,,,,,,,,,4,001,,,2020_Sep_07_1732,reactive_intentional_encoding_looped,3.2.4,59.83401505822813,
"Since you have seen the book before, you should select 'f' to indicate the book is old.",Press space to continue!,instruction_images/oldBook.png,None,None,None,None,None,None,None,J,F,None,old,new,,,,,,,,,,,,,,,,,,,,,,,,,,,,,,,,,,,,,,,,,,,,,,,,,,,,,,,,,,,,,,,,,,,,,,,,,,,,,,0,1,1,1,,,,,,,,,,,,,,,,,,,,,,,,,,,,,,,,,,,,,,,,,,,,,12.74035178599297,None,12.74035178599297,None,space,0.29960865899920464,12.74035178599297,None,12.74035178599297,None,12.74035178599297,None,12.74035178599297,None,12.74035178599297,None,12.74035178599297,None,,,,,,,,,,,,,,,,,,,,,,,,,4,001,,,2020_Sep_07_1732,reactive_intentional_encoding_looped,3.2.4,59.83401505822813,
This test is timed. You have a limit of 2 seconds to respond. So try to respond as quickly as possible.,Press space to continue!,instruction_images/oldBook.png,None,None,None,None,None,None,None,J,F,None,old,new,,,,,,,,,,,,,,,,,,,,,,,,,,,,,,,,,,,,,,,,,,,,,,,,,,,,,,,,,,,,,,,,,,,,,,,,,,,,,,0,2,2,2,,,,,,,,,,,,,,,,,,,,,,,,,,,,,,,,,,,,,,,,,,,,,13.084992643009173,None,13.084992643009173,None,space,0.24462579301325604,13.084992643009173,None,13.084992643009173,None,13.084992643009173,None,13.084992643009173,None,13.084992643009173,None,13.084992643009173,None,,,,,,,,,,,,,,,,,,,,,,,,,4,001,,,2020_Sep_07_1732,reactive_intentional_encoding_looped,3.2.4,59.83401505822813,
"First we will do a practice. When you’re ready to start the practice, press the space bar. ",Press space to continue!,instruction_images/oldBook.png,None,None,None,None,None,None,None,J,F,None,old,new,,,,,,,,,,,,,,,,,,,,,,,,,,,,,,,,,,,,,,,,,,,,,,,,,,,,,,,,,,,,,,,,,,,,,,,,,,,,,,0,3,3,3,,,,,,,,,,,,,,,,,,,,,,,,,,,,,,,,,,,,,,,,,,,,,13.375890453986358,None,13.375890453986358,None,space,0.2579654279979877,13.375890453986358,None,13.375890453986358,None,13.375890453986358,None,13.375890453986358,None,13.375890453986358,None,13.375890453986358,None,,,,,,,,,,,,,,,,,,,,,,,,,4,001,,,2020_Sep_07_1732,reactive_intentional_encoding_looped,3.2.4,59.83401505822813,
None,Press space to continue!,instruction_images/oldBook.png,None,None,None,None,None,None,None,J,F,None,old,new,,,,,,,,,,,,,,,,,,,,,,,,,,,,,,,,,,,,,,,,,,,,,,,,,,,,,,,,,,,,,,,,,,,,,,,,,,,,,,0,4,4,4,,,,,,,,,,,,,,,,,,,,,,,,,,,,,,,,,,,,,,,,,,,,,13.681360354006756,None,13.681360354006756,None,space,0.27759237098507583,13.681360354006756,None,13.681360354006756,None,13.681360354006756,None,13.681360354006756,None,13.681360354006756,None,13.681360354006756,None,,,,,,,,,,,,,,,,,,,,,,,,,4,001,,,2020_Sep_07_1732,reactive_intentional_encoding_looped,3.2.4,59.83401505822813,
,,,,,,,,,,,,,,,,,,,,,,,,,,,,,,,,,,,,,,,,,,,,,,,,,,,,,,,,,,,,,,,,,,,,,,,,,,,,,,,,,,,,,,,,,,,,,,,,,,,,,,,,,,,,,,,,,,,,,,,,,,,,,,,,,,,,,,,,,,,,,,,,,,,,,,,,,,,,,,13.995089843985625,None,space,0.2614939009945374,13.995089843985625,None,,,,,,,,,,,,,,,,,,,4,001,,,2020_Sep_07_1732,reactive_intentional_encoding_looped,3.2.4,59.83401505822813,
,,,,,,,,,,,,,,,images/quartz.png,A,object ,1,None,,,,,,,,,,,,,,,,,,,,,,,,,,,,,,,,,,,,,,,,,,,,,,,,,,,,,,,,,,,,,,,,,,,,,,,,,,,,,,,,,0,0,0,0,,,,,,,,,,,,,,,,,,,,,,,,,,,,,,,,,,,,,,,,,,,,,,,,,,,,,,,,,,,,,13.995089843985625,None,14.316025315987645,None,space,0.2797966430080123,14.316025315987645,None,14.316025315987645,None,14.316025315987645,None,14.316025315987645,None,14.316025315987645,None,14.6409813700011,None,4,001,,,2020_Sep_07_1732,reactive_intentional_encoding_looped,3.2.4,59.83401505822813,
,,,,,,,,,,,,,,,images/feather.png,A,object ,2,None,,,,,,,,,,,,,,,,,,,,,,,,,,,,,,,,,,,,,,,,,,,,,,,,,,,,,,,,,,,,,,,,,,,,,,,,,,,,,,,,,0,1,1,1,,,,,,,,,,,,,,,,,,,,,,,,,,,,,,,,,,,,,,,,,,,,,,,,,,,,,,,,,,,,,,,15.147026230988558,None,j,0.5967519829864614,15.147026230988558,None,15.147026230988558,None,15.147026230988558,None,15.147026230988558,None,15.147026230988558,None,15.76381907198811,None,4,001,,,2020_Sep_07_1732,reactive_intentional_encoding_looped,3.2.4,59.83401505822813,
,,,,,,,,,,,,,,,images/mannequin.jpg,A,object ,3,None,,,,,,,,,,,,,,,,,,,,,,,,,,,,,,,,,,,,,,,,,,,,,,,,,,,,,,,,,,,,,,,,,,,,,,,,,,,,,,,,,0,2,2,2,,,,,,,,,,,,,,,,,,,,,,,,,,,,,,,,,,,,,,,,,,,,,,,,,,,,,,,,,,,,,,,16.27286620400264,None,j,0.23099649700452574,16.27286620400264,None,16.27286620400264,None,16.27286620400264,None,16.27286620400264,None,16.27286620400264,None,16.523843801987823,None,4,001,,,2020_Sep_07_1732,reactive_intentional_encoding_looped,3.2.4,59.83401505822813,
,,,,,,,,,,,,,,,images/westminster_bbbey_b.jpg,new,scene,4,None,,,,,,,,,,,,,,,,,,,,,,,,,,,,,,,,,,,,,,,,,,,,,,,,,,,,,,,,,,,,,,,,,,,,,,,,,,,,,,,,,0,3,3,3,,,,,,,,,,,,,,,,,,,,,,,,,,,,,,,,,,,,,,,,,,,,,,,,,,,,,,,,,,,,,,,17.039690996985883,None,j,0.043151146004674956,17.039690996985883,None,17.039690996985883,None,17.039690996985883,None,17.039690996985883,None,17.039690996985883,None,17.107330183993327,None,4,001,,,2020_Sep_07_1732,reactive_intentional_encoding_looped,3.2.4,59.83401505822813,
,,,,,,,,,,,,,,,images/outhouse.png,C,object ,5,direct,,,,,,,,,,,,,,,,,,,,,,,,,,,,,,,,,,,,,,,,,,,,,,,,,,,,,,,,,,,,,,,,,,,,,,,,,,,,,,,,,0,4,4,4,,,,,,,,,,,,,,,,,,,,,,,,,,,,,,,,,,,,,,,,,,,,,,,,,,,,,,,,,,,,,,,17.614260684000328,None,j,0.11545985800330527,17.614260684000328,None,17.614260684000328,None,17.614260684000328,None,17.614260684000328,None,17.614260684000328,None,17.763064425002085,None,4,001,,,2020_Sep_07_1732,reactive_intentional_encoding_looped,3.2.4,59.83401505822813,
,,,,,,,,,,,,,,,images/neil_patrick_harris.jpg,B,face,6,direct,,,,,,,,,,,,,,,,,,,,,,,,,,,,,,,,,,,,,,,,,,,,,,,,,,,,,,,,,,,,,,,,,,,,,,,,,,,,,,,,,0,5,5,5,,,,,,,,,,,,,,,,,,,,,,,,,,,,,,,,,,,,,,,,,,,,,,,,,,,,,,,,,,,,,,,18.272849177999888,None,j,0.10089798099943437,18.272849177999888,None,18.272849177999888,None,18.272849177999888,None,18.272849177999888,None,18.272849177999888,None,18.40686854699743,None,4,001,,,2020_Sep_07_1732,reactive_intentional_encoding_looped,3.2.4,59.83401505822813,
,,,,,,,,,,,,,,,images/martin_scorsese_a.jpg,new,face,7,None,,,,,,,,,,,,,,,,,,,,,,,,,,,,,,,,,,,,,,,,,,,,,,,,,,,,,,,,,,,,,,,,,,,,,,,,,,,,,,,,,0,6,6,6,,,,,,,,,,,,,,,,,,,,,,,,,,,,,,,,,,,,,,,,,,,,,,,,,,,,,,,,,,,,,,,18.913565538998228,None,j,0.08932779400493018,18.913565538998228,None,18.913565538998228,None,18.913565538998228,None,18.913565538998228,None,18.913565538998228,None,19.029777886986267,None,4,001,,,2020_Sep_07_1732,reactive_intentional_encoding_looped,3.2.4,59.83401505822813,
,,,,,,,,,,,,,,,images/microwave.png,C,object ,8,direct,,,,,,,,,,,,,,,,,,,,,,,,,,,,,,,,,,,,,,,,,,,,,,,,,,,,,,,,,,,,,,,,,,,,,,,,,,,,,,,,,0,7,7,7,,,,,,,,,,,,,,,,,,,,,,,,,,,,,,,,,,,,,,,,,,,,,,,,,,,,,,,,,,,,,,,19.541350894985953,None,j,0.07447490701451898,19.541350894985953,None,19.541350894985953,None,19.541350894985953,None,19.541350894985953,None,19.541350894985953,None,19.640209145989502,None,4,001,,,2020_Sep_07_1732,reactive_intentional_encoding_looped,3.2.4,59.83401505822813,
,,,,,,,,,,,,,,,images/empire_state_building_a.jpg,B,scene,9,direct,,,,,,,,,,,,,,,,,,,,,,,,,,,,,,,,,,,,,,,,,,,,,,,,,,,,,,,,,,,,,,,,,,,,,,,,,,,,,,,,,0,8,8,8,,,,,,,,,,,,,,,,,,,,,,,,,,,,,,,,,,,,,,,,,,,,,,,,,,,,,,,,,,,,,,,20.14680429198779,None,j,0.08384072998887859,20.14680429198779,None,20.14680429198779,None,20.14680429198779,None,20.14680429198779,None,20.14680429198779,None,20.263006950001,None,4,001,,,2020_Sep_07_1732,reactive_intentional_encoding_looped,3.2.4,59.83401505822813,
,,,,,,,,,,,,,,,images/pylonTraffic.jpg,new,object ,10,None,,,,,,,,,,,,,,,,,,,,,,,,,,,,,,,,,,,,,,,,,,,,,,,,,,,,,,,,,,,,,,,,,,,,,,,,,,,,,,,,,0,9,9,9,,,,,,,,,,,,,,,,,,,,,,,,,,,,,,,,,,,,,,,,,,,,,,,,,,,,,,,,,,,,,,,20.77266383598908,None,j,0.061969176022103056,20.77266383598908,None,20.77266383598908,None,20.77266383598908,None,20.77266383598908,None,20.77266383598908,None,20.856087591993855,None,4,001,,,2020_Sep_07_1732,reactive_intentional_encoding_looped,3.2.4,59.83401505822813,
,,,,,,,,,,,,,,,images/qtip.png,new,object ,11,None,,,,,,,,,,,,,,,,,,,,,,,,,,,,,,,,,,,,,,,,,,,,,,,,,,,,,,,,,,,,,,,,,,,,,,,,,,,,,,,,,0,10,10,10,,,,,,,,,,,,,,,,,,,,,,,,,,,,,,,,,,,,,,,,,,,,,,,,,,,,,,,,,,,,,,,21.359423538000556,None,j,0.05232462001731619,21.359423538000556,None,21.359423538000556,None,21.359423538000556,None,21.359423538000556,None,21.359423538000556,None,21.43919500798802,None,4,001,,,2020_Sep_07_1732,reactive_intentional_encoding_looped,3.2.4,59.83401505822813,
,,,,,,,,,,,,,,,images/washington_monument_a.jpg,new,scene,12,None,,,,,,,,,,,,,,,,,,,,,,,,,,,,,,,,,,,,,,,,,,,,,,,,,,,,,,,,,,,,,,,,,,,,,,,,,,,,,,,,,0,11,11,11,,,,,,,,,,,,,,,,,,,,,,,,,,,,,,,,,,,,,,,,,,,,,,,,,,,,,,,,,,,,,,,21.95099514798494,None,j,0.03380276300595142,21.95099514798494,None,21.95099514798494,None,21.95099514798494,None,21.95099514798494,None,21.95099514798494,None,22.01282802800415,None,4,001,,,2020_Sep_07_1732,reactive_intentional_encoding_looped,3.2.4,59.83401505822813,
,,,,,,,,,,,,,,,images/puzzlepiece.png,A,object ,13,None,,,,,,,,,,,,,,,,,,,,,,,,,,,,,,,,,,,,,,,,,,,,,,,,,,,,,,,,,,,,,,,,,,,,,,,,,,,,,,,,,0,12,12,12,,,,,,,,,,,,,,,,,,,,,,,,,,,,,,,,,,,,,,,,,,,,,,,,,,,,,,,,,,,,,,,22.522916316986084,None,j,0.08689210697775707,22.522916316986084,None,22.522916316986084,None,22.522916316986084,None,22.522916316986084,None,22.522916316986084,None,22.639578862988856,None,4,001,,,2020_Sep_07_1732,reactive_intentional_encoding_looped,3.2.4,59.83401505822813,
,,,,,,,,,,,,,,,images/newspaper_stack.png,C,object ,14,direct,,,,,,,,,,,,,,,,,,,,,,,,,,,,,,,,,,,,,,,,,,,,,,,,,,,,,,,,,,,,,,,,,,,,,,,,,,,,,,,,,0,13,13,13,,,,,,,,,,,,,,,,,,,,,,,,,,,,,,,,,,,,,,,,,,,,,,,,,,,,,,,,,,,,,,,23.147420391993364,None,j,0.02338956098537892,23.147420391993364,None,23.147420391993364,None,23.147420391993364,None,23.147420391993364,None,23.147420391993364,None,23.19660896298592,None,4,001,,,2020_Sep_07_1732,reactive_intentional_encoding_looped,3.2.4,59.83401505822813,
,,,,,,,,,,,,,,,images/james_franco_c.jpg,B,face,15,direct,,,,,,,,,,,,,,,,,,,,,,,,,,,,,,,,,,,,,,,,,,,,,,,,,,,,,,,,,,,,,,,,,,,,,,,,,,,,,,,,,0,14,14,14,,,,,,,,,,,,,,,,,,,,,,,,,,,,,,,,,,,,,,,,,,,,,,,,,,,,,,,,,,,,,,,23.70625433398527,None,j,0.008315729995956644,23.70625433398527,None,23.70625433398527,None,23.70625433398527,None,23.70625433398527,None,23.70625433398527,None,23.739730037981644,None,4,001,,,2020_Sep_07_1732,reactive_intentional_encoding_looped,3.2.4,59.83401505822813,
,,,,,,,,,,,,,,,images/donutFloaty.jpg,A,object ,16,None,,,,,,,,,,,,,,,,,,,,,,,,,,,,,,,,,,,,,,,,,,,,,,,,,,,,,,,,,,,,,,,,,,,,,,,,,,,,,,,,,0,15,15,15,,,,,,,,,,,,,,,,,,,,,,,,,,,,,,,,,,,,,,,,,,,,,,,,,,,,,,,,,,,,,,,24.257030359003693,None,j,0.5494633750058711,24.257030359003693,None,24.257030359003693,None,24.257030359003693,None,24.257030359003693,None,24.257030359003693,None,24.83897649499704,None,4,001,,,2020_Sep_07_1732,reactive_intentional_encoding_looped,3.2.4,59.83401505822813,
,,,,,,,,,,,,,,,images/lotus_temple_a.jpg,new,scene,17,None,,,,,,,,,,,,,,,,,,,,,,,,,,,,,,,,,,,,,,,,,,,,,,,,,,,,,,,,,,,,,,,,,,,,,,,,,,,,,,,,,0,16,16,16,,,,,,,,,,,,,,,,,,,,,,,,,,,,,,,,,,,,,,,,,,,,,,,,,,,,,,,,,,,,,,,25.349683856999036,None,j,0.5267516099847853,25.349683856999036,None,25.349683856999036,None,25.349683856999036,None,25.349683856999036,None,25.349683856999036,None,25.896617678983603,None,4,001,,,2020_Sep_07_1732,reactive_intentional_encoding_looped,3.2.4,59.83401505822813,
,,,,,,,,,,,,,,,images/antlerheadband.png,new,object ,18,None,,,,,,,,,,,,,,,,,,,,,,,,,,,,,,,,,,,,,,,,,,,,,,,,,,,,,,,,,,,,,,,,,,,,,,,,,,,,,,,,,0,17,17,17,,,,,,,,,,,,,,,,,,,,,,,,,,,,,,,,,,,,,,,,,,,,,,,,,,,,,,,,,,,,,,,26.40540310498909,None,None,,26.40540310498909,None,26.40540310498909,None,26.40540310498909,None,26.40540310498909,None,26.40540310498909,None,28.40554870199412,None,4,001,,,2020_Sep_07_1732,reactive_intentional_encoding_looped,3.2.4,59.83401505822813,
,,,,,,,,,,,,,,,images/champagne.jpg,A,object ,19,None,,,,,,,,,,,,,,,,,,,,,,,,,,,,,,,,,,,,,,,,,,,,,,,,,,,,,,,,,,,,,,,,,,,,,,,,,,,,,,,,,0,18,18,18,,,,,,,,,,,,,,,,,,,,,,,,,,,,,,,,,,,,,,,,,,,,,,,,,,,,,,,,,,,,,,,28.9167519719922,None,None,,28.9167519719922,None,28.9167519719922,None,28.9167519719922,None,28.9167519719922,None,28.9167519719922,None,30.929356723994715,None,4,001,,,2020_Sep_07_1732,reactive_intentional_encoding_looped,3.2.4,59.83401505822813,
,,,,,,,,,,,,,,,images/bag_gift.png,A,object ,20,None,,,,,,,,,,,,,,,,,,,,,,,,,,,,,,,,,,,,,,,,,,,,,,,,,,,,,,,,,,,,,,,,,,,,,,,,,,,,,,,,,0,19,19,19,,,,,,,,,,,,,,,,,,,,,,,,,,,,,,,,,,,,,,,,,,,,,,,,,,,,,,,,,,,,,,,31.44117242199718,None,None,,31.44117242199718,None,31.44117242199718,None,31.44117242199718,None,31.44117242199718,None,31.44117242199718,None,33.44533377198968,None,4,001,,,2020_Sep_07_1732,reactive_intentional_encoding_looped,3.2.4,59.83401505822813,
,,,,,,,,,,,,,,,images/trafalgar_square_a.jpg,new,scene,21,None,,,,,,,,,,,,,,,,,,,,,,,,,,,,,,,,,,,,,,,,,,,,,,,,,,,,,,,,,,,,,,,,,,,,,,,,,,,,,,,,,0,20,20,20,,,,,,,,,,,,,,,,,,,,,,,,,,,,,,,,,,,,,,,,,,,,,,,,,,,,,,,,,,,,,,,33.95527948398376,None,None,,33.95527948398376,None,33.95527948398376,None,33.95527948398376,None,33.95527948398376,None,33.95527948398376,None,35.96280842999113,None,4,001,,,2020_Sep_07_1732,reactive_intentional_encoding_looped,3.2.4,59.83401505822813,
,,,,,,,,,,,,,,,images/kirsten_dunst_a.jpg,new,face,22,None,,,,,,,,,,,,,,,,,,,,,,,,,,,,,,,,,,,,,,,,,,,,,,,,,,,,,,,,,,,,,,,,,,,,,,,,,,,,,,,,,0,21,21,21,,,,,,,,,,,,,,,,,,,,,,,,,,,,,,,,,,,,,,,,,,,,,,,,,,,,,,,,,,,,,,,36.4711347729899,None,None,,36.4711347729899,None,36.4711347729899,None,36.4711347729899,None,36.4711347729899,None,36.4711347729899,None,38.4791112979874,None,4,001,,,2020_Sep_07_1732,reactive_intentional_encoding_looped,3.2.4,59.83401505822813,
,,,,,,,,,,,,,,,images/pajamas.png,C,object ,23,direct,,,,,,,,,,,,,,,,,,,,,,,,,,,,,,,,,,,,,,,,,,,,,,,,,,,,,,,,,,,,,,,,,,,,,,,,,,,,,,,,,0,22,22,22,,,,,,,,,,,,,,,,,,,,,,,,,,,,,,,,,,,,,,,,,,,,,,,,,,,,,,,,,,,,,,,39.0093633189972,None,None,,39.0093633189972,None,39.0093633189972,None,39.0093633189972,None,39.0093633189972,None,39.0093633189972,None,41.01179365598364,None,4,001,,,2020_Sep_07_1732,reactive_intentional_encoding_looped,3.2.4,59.83401505822813,
,,,,,,,,,,,,,,,images/machu_picchu_c.jpg,B,scene,24,direct,,,,,,,,,,,,,,,,,,,,,,,,,,,,,,,,,,,,,,,,,,,,,,,,,,,,,,,,,,,,,,,,,,,,,,,,,,,,,,,,,0,23,23,23,,,,,,,,,,,,,,,,,,,,,,,,,,,,,,,,,,,,,,,,,,,,,,,,,,,,,,,,,,,,,,,41.5314027069835,None,None,,41.5314027069835,None,41.5314027069835,None,41.5314027069835,None,41.5314027069835,None,41.5314027069835,None,43.545759559987346,None,4,001,,,2020_Sep_07_1732,reactive_intentional_encoding_looped,3.2.4,59.83401505822813,
,,,,,,,,,,,,,,,images/mop.png,C,object ,25,indirect,,,,,,,,,,,,,,,,,,,,,,,,,,,,,,,,,,,,,,,,,,,,,,,,,,,,,,,,,,,,,,,,,,,,,,,,,,,,,,,,,0,24,24,24,,,,,,,,,,,,,,,,,,,,,,,,,,,,,,,,,,,,,,,,,,,,,,,,,,,,,,,,,,,,,,,44.06238878500881,None,None,,44.06238878500881,None,44.06238878500881,None,44.06238878500881,None,44.06238878500881,None,44.06238878500881,None,46.06186770598288,None,4,001,,,2020_Sep_07_1732,reactive_intentional_encoding_looped,3.2.4,59.83401505822813,
,,,,,,,,,,,,,,,images/golden_gate_bridge_b.jpg,B,scene,26,indirect,,,,,,,,,,,,,,,,,,,,,,,,,,,,,,,,,,,,,,,,,,,,,,,,,,,,,,,,,,,,,,,,,,,,,,,,,,,,,,,,,0,25,25,25,,,,,,,,,,,,,,,,,,,,,,,,,,,,,,,,,,,,,,,,,,,,,,,,,,,,,,,,,,,,,,,46.57256840800983,None,None,,46.57256840800983,None,46.57256840800983,None,46.57256840800983,None,46.57256840800983,None,46.57256840800983,None,48.57943427498685,None,4,001,,,2020_Sep_07_1732,reactive_intentional_encoding_looped,3.2.4,59.83401505822813,
,,,,,,,,,,,,,,,images/ozzy_osbourne_a.jpg,new,face,27,None,,,,,,,,,,,,,,,,,,,,,,,,,,,,,,,,,,,,,,,,,,,,,,,,,,,,,,,,,,,,,,,,,,,,,,,,,,,,,,,,,0,26,26,26,,,,,,,,,,,,,,,,,,,,,,,,,,,,,,,,,,,,,,,,,,,,,,,,,,,,,,,,,,,,,,,49.105472291994374,None,None,,49.105472291994374,None,49.105472291994374,None,49.105472291994374,None,49.105472291994374,None,49.105472291994374,None,51.11287853799877,None,4,001,,,2020_Sep_07_1732,reactive_intentional_encoding_looped,3.2.4,59.83401505822813,
,,,,,,,,,,,,,,,images/rollerblade.png,new,object ,28,None,,,,,,,,,,,,,,,,,,,,,,,,,,,,,,,,,,,,,,,,,,,,,,,,,,,,,,,,,,,,,,,,,,,,,,,,,,,,,,,,,0,27,27,27,,,,,,,,,,,,,,,,,,,,,,,,,,,,,,,,,,,,,,,,,,,,,,,,,,,,,,,,,,,,,,,51.62926203600364,None,None,,51.62926203600364,None,51.62926203600364,None,51.62926203600364,None,51.62926203600364,None,51.62926203600364,None,53.629755028989166,None,4,001,,,2020_Sep_07_1732,reactive_intentional_encoding_looped,3.2.4,59.83401505822813,
,,,,,,,,,,,,,,,images/motorcycle.png,C,object ,29,indirect,,,,,,,,,,,,,,,,,,,,,,,,,,,,,,,,,,,,,,,,,,,,,,,,,,,,,,,,,,,,,,,,,,,,,,,,,,,,,,,,,0,28,28,28,,,,,,,,,,,,,,,,,,,,,,,,,,,,,,,,,,,,,,,,,,,,,,,,,,,,,,,,,,,,,,,54.14552005799487,None,None,,54.14552005799487,None,54.14552005799487,None,54.14552005799487,None,54.14552005799487,None,54.14552005799487,None,56.146691153990105,None,4,001,,,2020_Sep_07_1732,reactive_intentional_encoding_looped,3.2.4,59.83401505822813,
,,,,,,,,,,,,,,,images/serengeti_c.jpg,B,scene,30,indirect,,,,,,,,,,,,,,,,,,,,,,,,,,,,,,,,,,,,,,,,,,,,,,,,,,,,,,,,,,,,,,,,,,,,,,,,,,,,,,,,,0,29,29,29,,,,,,,,,,,,,,,,,,,,,,,,,,,,,,,,,,,,,,,,,,,,,,,,,,,,,,,,,,,,,,,56.67947968599037,None,f,0.2091631990042515,56.67947968599037,None,56.67947968599037,None,56.67947968599037,None,56.67947968599037,None,56.67947968599037,None,56.91258606800693,None,4,001,,,2020_Sep_07_1732,reactive_intentional_encoding_looped,3.2.4,59.83401505822813,
,,,,,,,,,,,,,,,images/chest_toys.png,A,object ,31,None,,,,,,,,,,,,,,,,,,,,,,,,,,,,,,,,,,,,,,,,,,,,,,,,,,,,,,,,,,,,,,,,,,,,,,,,,,,,,,,,,0,30,30,30,,,,,,,,,,,,,,,,,,,,,,,,,,,,,,,,,,,,,,,,,,,,,,,,,,,,,,,,,,,,,,,57.42253723900649,None,None,,57.42253723900649,None,57.42253723900649,None,57.42253723900649,None,57.42253723900649,None,57.42253723900649,None,59.42949922499247,None,4,001,,,2020_Sep_07_1732,reactive_intentional_encoding_looped,3.2.4,59.83401505822813,
,,,,,,,,,,,,,,,images/razor.png,new,object ,32,None,,,,,,,,,,,,,,,,,,,,,,,,,,,,,,,,,,,,,,,,,,,,,,,,,,,,,,,,,,,,,,,,,,,,,,,,,,,,,,,,,0,31,31,31,,,,,,,,,,,,,,,,,,,,,,,,,,,,,,,,,,,,,,,,,,,,,,,,,,,,,,,,,,,,,,,59.93858780898154,None,None,,59.93858780898154,None,59.93858780898154,None,59.93858780898154,None,59.93858780898154,None,59.93858780898154,None,61.94610525498865,None,4,001,,,2020_Sep_07_1732,reactive_intentional_encoding_looped,3.2.4,59.83401505822813,
,,,,,,,,,,,,,,,images/st_basils_a.jpg,new,scene,33,None,,,,,,,,,,,,,,,,,,,,,,,,,,,,,,,,,,,,,,,,,,,,,,,,,,,,,,,,,,,,,,,,,,,,,,,,,,,,,,,,,0,32,32,32,,,,,,,,,,,,,,,,,,,,,,,,,,,,,,,,,,,,,,,,,,,,,,,,,,,,,,,,,,,,,,,62.46168142100214,None,None,,62.46168142100214,None,62.46168142100214,None,62.46168142100214,None,62.46168142100214,None,62.46168142100214,None,64.46294171898626,None,4,001,,,2020_Sep_07_1732,reactive_intentional_encoding_looped,3.2.4,59.83401505822813,
,,,,,,,,,,,,,,,images/balloon.jpg,A,object ,34,None,,,,,,,,,,,,,,,,,,,,,,,,,,,,,,,,,,,,,,,,,,,,,,,,,,,,,,,,,,,,,,,,,,,,,,,,,,,,,,,,,0,33,33,33,,,,,,,,,,,,,,,,,,,,,,,,,,,,,,,,,,,,,,,,,,,,,,,,,,,,,,,,,,,,,,,64.96895328498795,None,None,,64.96895328498795,None,64.96895328498795,None,64.96895328498795,None,64.96895328498795,None,64.96895328498795,None,66.97943013199256,None,4,001,,,2020_Sep_07_1732,reactive_intentional_encoding_looped,3.2.4,59.83401505822813,
,,,,,,,,,,,,,,,images/pentagon_a.jpg,new,scene,35,None,,,,,,,,,,,,,,,,,,,,,,,,,,,,,,,,,,,,,,,,,,,,,,,,,,,,,,,,,,,,,,,,,,,,,,,,,,,,,,,,,0,34,34,34,,,,,,,,,,,,,,,,,,,,,,,,,,,,,,,,,,,,,,,,,,,,,,,,,,,,,,,,,,,,,,,67.49597788200481,None,None,,67.49597788200481,None,67.49597788200481,None,67.49597788200481,None,67.49597788200481,None,67.49597788200481,None,69.49606892099837,None,4,001,,,2020_Sep_07_1732,reactive_intentional_encoding_looped,3.2.4,59.83401505822813,
,,,,,,,,,,,,,,,images/puppettheatre.png,new,object ,36,None,,,,,,,,,,,,,,,,,,,,,,,,,,,,,,,,,,,,,,,,,,,,,,,,,,,,,,,,,,,,,,,,,,,,,,,,,,,,,,,,,0,35,35,35,,,,,,,,,,,,,,,,,,,,,,,,,,,,,,,,,,,,,,,,,,,,,,,,,,,,,,,,,,,,,,,70.01273993300856,None,None,,70.01273993300856,None,70.01273993300856,None,70.01273993300856,None,70.01273993300856,None,70.01273993300856,None,72.01233153400244,None,4,001,,,2020_Sep_07_1732,reactive_intentional_encoding_looped,3.2.4,59.83401505822813,
,,,,,,,,,,,,,,,images/glasses_sun.png,A,object ,37,None,,,,,,,,,,,,,,,,,,,,,,,,,,,,,,,,,,,,,,,,,,,,,,,,,,,,,,,,,,,,,,,,,,,,,,,,,,,,,,,,,0,36,36,36,,,,,,,,,,,,,,,,,,,,,,,,,,,,,,,,,,,,,,,,,,,,,,,,,,,,,,,,,,,,,,,72.5192171149829,None,None,,72.5192171149829,None,72.5192171149829,None,72.5192171149829,None,72.5192171149829,None,72.5192171149829,None,74.5292204739817,None,4,001,,,2020_Sep_07_1732,reactive_intentional_encoding_looped,3.2.4,59.83401505822813,
,,,,,,,,,,,,,,,images/meg_ryan_b.jpg,new,face,38,None,,,,,,,,,,,,,,,,,,,,,,,,,,,,,,,,,,,,,,,,,,,,,,,,,,,,,,,,,,,,,,,,,,,,,,,,,,,,,,,,,0,37,37,37,,,,,,,,,,,,,,,,,,,,,,,,,,,,,,,,,,,,,,,,,,,,,,,,,,,,,,,,,,,,,,,75.0411128429987,None,None,,75.0411128429987,None,75.0411128429987,None,75.0411128429987,None,75.0411128429987,None,75.0411128429987,None,77.04545248800423,None,4,001,,,2020_Sep_07_1732,reactive_intentional_encoding_looped,3.2.4,59.83401505822813,
,,,,,,,,,,,,,,,images/origamiPaper.png,C,object ,39,direct,,,,,,,,,,,,,,,,,,,,,,,,,,,,,,,,,,,,,,,,,,,,,,,,,,,,,,,,,,,,,,,,,,,,,,,,,,,,,,,,,0,38,38,38,,,,,,,,,,,,,,,,,,,,,,,,,,,,,,,,,,,,,,,,,,,,,,,,,,,,,,,,,,,,,,,77.56277806000435,None,None,,77.56277806000435,None,77.56277806000435,None,77.56277806000435,None,77.56277806000435,None,77.56277806000435,None,79.56268971698591,None,4,001,,,2020_Sep_07_1732,reactive_intentional_encoding_looped,3.2.4,59.83401505822813,
,,,,,,,,,,,,,,,images/stonehenge_b.jpg,B,scene,40,direct,,,,,,,,,,,,,,,,,,,,,,,,,,,,,,,,,,,,,,,,,,,,,,,,,,,,,,,,,,,,,,,,,,,,,,,,,,,,,,,,,0,39,39,39,,,,,,,,,,,,,,,,,,,,,,,,,,,,,,,,,,,,,,,,,,,,,,,,,,,,,,,,,,,,,,,80.07921348098898,None,None,,80.07921348098898,None,80.07921348098898,None,80.07921348098898,None,80.07921348098898,None,80.07921348098898,None,82.07903067400912,None,4,001,,,2020_Sep_07_1732,reactive_intentional_encoding_looped,3.2.4,59.83401505822813,
,,,,,,,,,,,,,,,images/diving_board.jpg,A,object ,41,None,,,,,,,,,,,,,,,,,,,,,,,,,,,,,,,,,,,,,,,,,,,,,,,,,,,,,,,,,,,,,,,,,,,,,,,,,,,,,,,,,0,40,40,40,,,,,,,,,,,,,,,,,,,,,,,,,,,,,,,,,,,,,,,,,,,,,,,,,,,,,,,,,,,,,,,82.59538940200582,None,None,,82.59538940200582,None,82.59538940200582,None,82.59538940200582,None,82.59538940200582,None,82.59538940200582,None,84.59610863099806,None,4,001,,,2020_Sep_07_1732,reactive_intentional_encoding_looped,3.2.4,59.83401505822813,
,,,,,,,,,,,,,,,images/oven.png,C,object ,42,indirect,,,,,,,,,,,,,,,,,,,,,,,,,,,,,,,,,,,,,,,,,,,,,,,,,,,,,,,,,,,,,,,,,,,,,,,,,,,,,,,,,0,41,41,41,,,,,,,,,,,,,,,,,,,,,,,,,,,,,,,,,,,,,,,,,,,,,,,,,,,,,,,,,,,,,,,85.11274732899619,None,None,,85.11274732899619,None,85.11274732899619,None,85.11274732899619,None,85.11274732899619,None,85.11274732899619,None,87.11193617800018,None,4,001,,,2020_Sep_07_1732,reactive_intentional_encoding_looped,3.2.4,59.83401505822813,
,,,,,,,,,,,,,,,images/emma_stone.jpg,B,face,43,indirect,,,,,,,,,,,,,,,,,,,,,,,,,,,,,,,,,,,,,,,,,,,,,,,,,,,,,,,,,,,,,,,,,,,,,,,,,,,,,,,,,0,42,42,42,,,,,,,,,,,,,,,,,,,,,,,,,,,,,,,,,,,,,,,,,,,,,,,,,,,,,,,,,,,,,,,87.62911787000485,None,None,,87.62911787000485,None,87.62911787000485,None,87.62911787000485,None,87.62911787000485,None,87.62911787000485,None,89.62879301700741,None,4,001,,,2020_Sep_07_1732,reactive_intentional_encoding_looped,3.2.4,59.83401505822813,
,,,,,,,,,,,,,,,images/mel_gibson_c.jpg,new,face,44,None,,,,,,,,,,,,,,,,,,,,,,,,,,,,,,,,,,,,,,,,,,,,,,,,,,,,,,,,,,,,,,,,,,,,,,,,,,,,,,,,,0,43,43,43,,,,,,,,,,,,,,,,,,,,,,,,,,,,,,,,,,,,,,,,,,,,,,,,,,,,,,,,,,,,,,,90.13561561499955,None,None,,90.13561561499955,None,90.13561561499955,None,90.13561561499955,None,90.13561561499955,None,90.13561561499955,None,92.14540059500723,None,4,001,,,2020_Sep_07_1732,reactive_intentional_encoding_looped,3.2.4,59.83401505822813,
,,,,,,,,,,,,,,,images/white_house_a.jpg,new,scene,45,None,,,,,,,,,,,,,,,,,,,,,,,,,,,,,,,,,,,,,,,,,,,,,,,,,,,,,,,,,,,,,,,,,,,,,,,,,,,,,,,,,0,44,44,44,,,,,,,,,,,,,,,,,,,,,,,,,,,,,,,,,,,,,,,,,,,,,,,,,,,,,,,,,,,,,,,92.66271562600741,None,None,,92.66271562600741,None,92.66271562600741,None,92.66271562600741,None,92.66271562600741,None,92.66271562600741,None,94.66266431100667,None,4,001,,,2020_Sep_07_1732,reactive_intentional_encoding_looped,3.2.4,59.83401505822813,
,,,,,,,,,,,,,,,images/castle_sand.png,A,object ,46,None,,,,,,,,,,,,,,,,,,,,,,,,,,,,,,,,,,,,,,,,,,,,,,,,,,,,,,,,,,,,,,,,,,,,,,,,,,,,,,,,,0,45,45,45,,,,,,,,,,,,,,,,,,,,,,,,,,,,,,,,,,,,,,,,,,,,,,,,,,,,,,,,,,,,,,,95.17874686300638,None,None,,95.17874686300638,None,95.17874686300638,None,95.17874686300638,None,95.17874686300638,None,95.17874686300638,None,97.1788692889968,None,4,001,,,2020_Sep_07_1732,reactive_intentional_encoding_looped,3.2.4,59.83401505822813,
,,,,,,,,,,,,,,,images/pants.png,C,object ,47,direct,,,,,,,,,,,,,,,,,,,,,,,,,,,,,,,,,,,,,,,,,,,,,,,,,,,,,,,,,,,,,,,,,,,,,,,,,,,,,,,,,0,46,46,46,,,,,,,,,,,,,,,,,,,,,,,,,,,,,,,,,,,,,,,,,,,,,,,,,,,,,,,,,,,,,,,97.69537913898239,None,None,,97.69537913898239,None,97.69537913898239,None,97.69537913898239,None,97.69537913898239,None,97.69537913898239,None,99.6956966239959,None,4,001,,,2020_Sep_07_1732,reactive_intentional_encoding_looped,3.2.4,59.83401505822813,
,,,,,,,,,,,,,,,images/julia_roberts_c.jpg,B,face,48,direct,,,,,,,,,,,,,,,,,,,,,,,,,,,,,,,,,,,,,,,,,,,,,,,,,,,,,,,,,,,,,,,,,,,,,,,,,,,,,,,,,0,47,47,47,,,,,,,,,,,,,,,,,,,,,,,,,,,,,,,,,,,,,,,,,,,,,,,,,,,,,,,,,,,,,,,100.21182462200522,None,None,,100.21182462200522,None,100.21182462200522,None,100.21182462200522,None,100.21182462200522,None,100.21182462200522,None,102.21202494899626,None,4,001,,,2020_Sep_07_1732,reactive_intentional_encoding_looped,3.2.4,59.83401505822813,
,,,,,,,,,,,,,,,images/flipflopsBlue.png,A,object ,49,None,,,,,,,,,,,,,,,,,,,,,,,,,,,,,,,,,,,,,,,,,,,,,,,,,,,,,,,,,,,,,,,,,,,,,,,,,,,,,,,,,0,48,48,48,,,,,,,,,,,,,,,,,,,,,,,,,,,,,,,,,,,,,,,,,,,,,,,,,,,,,,,,,,,,,,,102.72860326900263,None,None,,102.72860326900263,None,102.72860326900263,None,102.72860326900263,None,102.72860326900263,None,102.72860326900263,None,104.72868853298132,None,4,001,,,2020_Sep_07_1732,reactive_intentional_encoding_looped,3.2.4,59.83401505822813,
,,,,,,,,,,,,,,,images/peppermill.png,C,object ,50,indirect,,,,,,,,,,,,,,,,,,,,,,,,,,,,,,,,,,,,,,,,,,,,,,,,,,,,,,,,,,,,,,,,,,,,,,,,,,,,,,,,,0,49,49,49,,,,,,,,,,,,,,,,,,,,,,,,,,,,,,,,,,,,,,,,,,,,,,,,,,,,,,,,,,,,,,,105.24508521298412,None,None,,105.24508521298412,None,105.24508521298412,None,105.24508521298412,None,105.24508521298412,None,105.24508521298412,None,107.26290988500114,None,4,001,,,2020_Sep_07_1732,reactive_intentional_encoding_looped,3.2.4,59.83401505822813,
,,,,,,,,,,,,,,,images/neuschwanstein_castle_c.jpg,B,scene,51,indirect,,,,,,,,,,,,,,,,,,,,,,,,,,,,,,,,,,,,,,,,,,,,,,,,,,,,,,,,,,,,,,,,,,,,,,,,,,,,,,,,,0,50,50,50,,,,,,,,,,,,,,,,,,,,,,,,,,,,,,,,,,,,,,,,,,,,,,,,,,,,,,,,,,,,,,,107.7787188399816,None,None,,107.7787188399816,None,107.7787188399816,None,107.7787188399816,None,107.7787188399816,None,107.7787188399816,None,109.77879135400872,None,4,001,,,2020_Sep_07_1732,reactive_intentional_encoding_looped,3.2.4,59.83401505822813,
,,,,,,,,,,,,,,,images/pen.png,C,object ,52,indirect,,,,,,,,,,,,,,,,,,,,,,,,,,,,,,,,,,,,,,,,,,,,,,,,,,,,,,,,,,,,,,,,,,,,,,,,,,,,,,,,,0,51,51,51,,,,,,,,,,,,,,,,,,,,,,,,,,,,,,,,,,,,,,,,,,,,,,,,,,,,,,,,,,,,,,,110.29575471300632,None,None,,110.29575471300632,None,110.29575471300632,None,110.29575471300632,None,110.29575471300632,None,110.29575471300632,None,112.29534432999208,None,4,001,,,2020_Sep_07_1732,reactive_intentional_encoding_looped,3.2.4,59.83401505822813,
,,,,,,,,,,,,,,,images/waikiki_c.jpg,B,scene,53,indirect,,,,,,,,,,,,,,,,,,,,,,,,,,,,,,,,,,,,,,,,,,,,,,,,,,,,,,,,,,,,,,,,,,,,,,,,,,,,,,,,,0,52,52,52,,,,,,,,,,,,,,,,,,,,,,,,,,,,,,,,,,,,,,,,,,,,,,,,,,,,,,,,,,,,,,,112.81141106199357,None,None,,112.81141106199357,None,112.81141106199357,None,112.81141106199357,None,112.81141106199357,None,112.81141106199357,None,114.8113143509836,None,4,001,,,2020_Sep_07_1732,reactive_intentional_encoding_looped,3.2.4,59.83401505822813,
,,,,,,,,,,,,,,,images/mug.png,C,object ,54,indirect,,,,,,,,,,,,,,,,,,,,,,,,,,,,,,,,,,,,,,,,,,,,,,,,,,,,,,,,,,,,,,,,,,,,,,,,,,,,,,,,,0,53,53,53,,,,,,,,,,,,,,,,,,,,,,,,,,,,,,,,,,,,,,,,,,,,,,,,,,,,,,,,,,,,,,,115.32797740600654,None,None,,115.32797740600654,None,115.32797740600654,None,115.32797740600654,None,115.32797740600654,None,115.32797740600654,None,117.32865219400264,None,4,001,,,2020_Sep_07_1732,reactive_intentional_encoding_looped,3.2.4,59.83401505822813,
,,,,,,,,,,,,,,,images/amy_poehler_c.jpg,B,face,55,indirect,,,,,,,,,,,,,,,,,,,,,,,,,,,,,,,,,,,,,,,,,,,,,,,,,,,,,,,,,,,,,,,,,,,,,,,,,,,,,,,,,0,54,54,54,,,,,,,,,,,,,,,,,,,,,,,,,,,,,,,,,,,,,,,,,,,,,,,,,,,,,,,,,,,,,,,117.84475953600486,None,None,,117.84475953600486,None,117.84475953600486,None,117.84475953600486,None,117.84475953600486,None,117.84475953600486,None,119.84522048899089,None,4,001,,,2020_Sep_07_1732,reactive_intentional_encoding_looped,3.2.4,59.83401505822813,
,,,,,,,,,,,,,,,images/cleaningGloves.png,new,object ,56,None,,,,,,,,,,,,,,,,,,,,,,,,,,,,,,,,,,,,,,,,,,,,,,,,,,,,,,,,,,,,,,,,,,,,,,,,,,,,,,,,,0,55,55,55,,,,,,,,,,,,,,,,,,,,,,,,,,,,,,,,,,,,,,,,,,,,,,,,,,,,,,,,,,,,,,,120.36143900299794,None,None,,120.36143900299794,None,120.36143900299794,None,120.36143900299794,None,120.36143900299794,None,120.36143900299794,None,122.36129235898261,None,4,001,,,2020_Sep_07_1732,reactive_intentional_encoding_looped,3.2.4,59.83401505822813,
,,,,,,,,,,,,,,,images/paddle_bread.png,C,object ,57,direct,,,,,,,,,,,,,,,,,,,,,,,,,,,,,,,,,,,,,,,,,,,,,,,,,,,,,,,,,,,,,,,,,,,,,,,,,,,,,,,,,0,56,56,56,,,,,,,,,,,,,,,,,,,,,,,,,,,,,,,,,,,,,,,,,,,,,,,,,,,,,,,,,,,,,,,122.87788419099525,None,None,,122.87788419099525,None,122.87788419099525,None,122.87788419099525,None,122.87788419099525,None,122.87788419099525,None,124.87780277099228,None,4,001,,,2020_Sep_07_1732,reactive_intentional_encoding_looped,3.2.4,59.83401505822813,
,,,,,,,,,,,,,,,images/gaudi_cathedral_c.jpg,B,scene,58,direct,,,,,,,,,,,,,,,,,,,,,,,,,,,,,,,,,,,,,,,,,,,,,,,,,,,,,,,,,,,,,,,,,,,,,,,,,,,,,,,,,0,57,57,57,,,,,,,,,,,,,,,,,,,,,,,,,,,,,,,,,,,,,,,,,,,,,,,,,,,,,,,,,,,,,,,125.39485645398963,None,None,,125.39485645398963,None,125.39485645398963,None,125.39485645398963,None,125.39485645398963,None,125.39485645398963,None,127.3936424679996,None,4,001,,,2020_Sep_07_1732,reactive_intentional_encoding_looped,3.2.4,59.83401505822813,
,,,,,,,,,,,,,,,images/notebook_black.png,C,object ,59,indirect,,,,,,,,,,,,,,,,,,,,,,,,,,,,,,,,,,,,,,,,,,,,,,,,,,,,,,,,,,,,,,,,,,,,,,,,,,,,,,,,,0,58,58,58,,,,,,,,,,,,,,,,,,,,,,,,,,,,,,,,,,,,,,,,,,,,,,,,,,,,,,,,,,,,,,,127.91122230098699,None,None,,127.91122230098699,None,127.91122230098699,None,127.91122230098699,None,127.91122230098699,None,127.91122230098699,None,129.91050875600195,None,4,001,,,2020_Sep_07_1732,reactive_intentional_encoding_looped,3.2.4,59.83401505822813,
,,,,,,,,,,,,,,,images/forbidden_city_c.jpg,B,scene,60,indirect,,,,,,,,,,,,,,,,,,,,,,,,,,,,,,,,,,,,,,,,,,,,,,,,,,,,,,,,,,,,,,,,,,,,,,,,,,,,,,,,,0,59,59,59,,,,,,,,,,,,,,,,,,,,,,,,,,,,,,,,,,,,,,,,,,,,,,,,,,,,,,,,,,,,,,,130.42793155100662,None,None,,130.42793155100662,None,130.42793155100662,None,130.42793155100662,None,130.42793155100662,None,130.42793155100662,None,132.4288366289984,None,4,001,,,2020_Sep_07_1732,reactive_intentional_encoding_looped,3.2.4,59.83401505822813,
,,,,,,,,,,,,,,,images/boat_sail.png,A,object ,61,None,,,,,,,,,,,,,,,,,,,,,,,,,,,,,,,,,,,,,,,,,,,,,,,,,,,,,,,,,,,,,,,,,,,,,,,,,,,,,,,,,0,60,60,60,,,,,,,,,,,,,,,,,,,,,,,,,,,,,,,,,,,,,,,,,,,,,,,,,,,,,,,,,,,,,,,132.9606334239943,None,None,,132.9606334239943,None,132.9606334239943,None,132.9606334239943,None,132.9606334239943,None,132.9606334239943,None,134.96020860498538,None,4,001,,,2020_Sep_07_1732,reactive_intentional_encoding_looped,3.2.4,59.83401505822813,
,,,,,,,,,,,,,,,images/mike_myers_c.jpg,new,face,62,None,,,,,,,,,,,,,,,,,,,,,,,,,,,,,,,,,,,,,,,,,,,,,,,,,,,,,,,,,,,,,,,,,,,,,,,,,,,,,,,,,0,61,61,61,,,,,,,,,,,,,,,,,,,,,,,,,,,,,,,,,,,,,,,,,,,,,,,,,,,,,,,,,,,,,,,135.4776902429876,None,None,,135.4776902429876,None,135.4776902429876,None,135.4776902429876,None,135.4776902429876,None,135.4776902429876,None,137.47807271199417,None,4,001,,,2020_Sep_07_1732,reactive_intentional_encoding_looped,3.2.4,59.83401505822813,
,,,,,,,,,,,,,,,images/flashlight.png,A,object ,63,None,,,,,,,,,,,,,,,,,,,,,,,,,,,,,,,,,,,,,,,,,,,,,,,,,,,,,,,,,,,,,,,,,,,,,,,,,,,,,,,,,0,62,62,62,,,,,,,,,,,,,,,,,,,,,,,,,,,,,,,,,,,,,,,,,,,,,,,,,,,,,,,,,,,,,,,137.99367514098412,None,None,,137.99367514098412,None,137.99367514098412,None,137.99367514098412,None,137.99367514098412,None,137.99367514098412,None,139.99447794799926,None,4,001,,,2020_Sep_07_1732,reactive_intentional_encoding_looped,3.2.4,59.83401505822813,
,,,,,,,,,,,,,,,images/match.png,C,object ,64,direct,,,,,,,,,,,,,,,,,,,,,,,,,,,,,,,,,,,,,,,,,,,,,,,,,,,,,,,,,,,,,,,,,,,,,,,,,,,,,,,,,0,63,63,63,,,,,,,,,,,,,,,,,,,,,,,,,,,,,,,,,,,,,,,,,,,,,,,,,,,,,,,,,,,,,,,140.49955632098136,None,None,,140.49955632098136,None,140.49955632098136,None,140.49955632098136,None,140.49955632098136,None,140.49955632098136,None,142.5119477850094,None,4,001,,,2020_Sep_07_1732,reactive_intentional_encoding_looped,3.2.4,59.83401505822813,
,,,,,,,,,,,,,,,images/grand_canyon_c.jpg,B,scene,65,direct,,,,,,,,,,,,,,,,,,,,,,,,,,,,,,,,,,,,,,,,,,,,,,,,,,,,,,,,,,,,,,,,,,,,,,,,,,,,,,,,,0,64,64,64,,,,,,,,,,,,,,,,,,,,,,,,,,,,,,,,,,,,,,,,,,,,,,,,,,,,,,,,,,,,,,,143.02589387900662,None,None,,143.02589387900662,None,143.02589387900662,None,143.02589387900662,None,143.02589387900662,None,143.02589387900662,None,145.02815343800467,None,4,001,,,2020_Sep_07_1732,reactive_intentional_encoding_looped,3.2.4,59.83401505822813,
,,,,,,,,,,,,,,,images/scooter.png,A,object ,66,None,,,,,,,,,,,,,,,,,,,,,,,,,,,,,,,,,,,,,,,,,,,,,,,,,,,,,,,,,,,,,,,,,,,,,,,,,,,,,,,,,0,65,65,65,,,,,,,,,,,,,,,,,,,,,,,,,,,,,,,,,,,,,,,,,,,,,,,,,,,,,,,,,,,,,,,145.54199518400128,None,None,,145.54199518400128,None,145.54199518400128,None,145.54199518400128,None,145.54199518400128,None,145.54199518400128,None,147.54436485399492,None,4,001,,,2020_Sep_07_1732,reactive_intentional_encoding_looped,3.2.4,59.83401505822813,
,,,,,,,,,,,,,,,images/paddle ball.jpg,C,object ,67,direct,,,,,,,,,,,,,,,,,,,,,,,,,,,,,,,,,,,,,,,,,,,,,,,,,,,,,,,,,,,,,,,,,,,,,,,,,,,,,,,,,0,66,66,66,,,,,,,,,,,,,,,,,,,,,,,,,,,,,,,,,,,,,,,,,,,,,,,,,,,,,,,,,,,,,,,148.0593276679865,None,None,,148.0593276679865,None,148.0593276679865,None,148.0593276679865,None,148.0593276679865,None,148.0593276679865,None,150.06095142298727,None,4,001,,,2020_Sep_07_1732,reactive_intentional_encoding_looped,3.2.4,59.83401505822813,
,,,,,,,,,,,,,,,images/joshua_tree_c.jpg,B,scene,68,direct,,,,,,,,,,,,,,,,,,,,,,,,,,,,,,,,,,,,,,,,,,,,,,,,,,,,,,,,,,,,,,,,,,,,,,,,,,,,,,,,,0,67,67,67,,,,,,,,,,,,,,,,,,,,,,,,,,,,,,,,,,,,,,,,,,,,,,,,,,,,,,,,,,,,,,,150.57501821999904,None,None,,150.57501821999904,None,150.57501821999904,None,150.57501821999904,None,150.57501821999904,None,150.57501821999904,None,152.5784054719843,None,4,001,,,2020_Sep_07_1732,reactive_intentional_encoding_looped,3.2.4,59.83401505822813,
,,,,,,,,,,,,,,,images/gametable_airhockey.png,A,object ,69,None,,,,,,,,,,,,,,,,,,,,,,,,,,,,,,,,,,,,,,,,,,,,,,,,,,,,,,,,,,,,,,,,,,,,,,,,,,,,,,,,,0,68,68,68,,,,,,,,,,,,,,,,,,,,,,,,,,,,,,,,,,,,,,,,,,,,,,,,,,,,,,,,,,,,,,,153.1079815219855,None,None,,153.1079815219855,None,153.1079815219855,None,153.1079815219855,None,153.1079815219855,None,153.1079815219855,None,155.11029902400333,None,4,001,,,2020_Sep_07_1732,reactive_intentional_encoding_looped,3.2.4,59.83401505822813,
,,,,,,,,,,,,,,,images/guitar_electric.png,A,object ,70,None,,,,,,,,,,,,,,,,,,,,,,,,,,,,,,,,,,,,,,,,,,,,,,,,,,,,,,,,,,,,,,,,,,,,,,,,,,,,,,,,,0,69,69,69,,,,,,,,,,,,,,,,,,,,,,,,,,,,,,,,,,,,,,,,,,,,,,,,,,,,,,,,,,,,,,,155.6250394200033,None,None,,155.6250394200033,None,155.6250394200033,None,155.6250394200033,None,155.6250394200033,None,155.6250394200033,None,157.62790791300358,None,4,001,,,2020_Sep_07_1732,reactive_intentional_encoding_looped,3.2.4,59.83401505822813,
,,,,,,,,,,,,,,,images/chain_rusty.png,A,object ,71,None,,,,,,,,,,,,,,,,,,,,,,,,,,,,,,,,,,,,,,,,,,,,,,,,,,,,,,,,,,,,,,,,,,,,,,,,,,,,,,,,,0,70,70,70,,,,,,,,,,,,,,,,,,,,,,,,,,,,,,,,,,,,,,,,,,,,,,,,,,,,,,,,,,,,,,,158.14066968800034,None,None,,158.14066968800034,None,158.14066968800034,None,158.14066968800034,None,158.14066968800034,None,158.14066968800034,None,160.14430884399917,None,4,001,,,2020_Sep_07_1732,reactive_intentional_encoding_looped,3.2.4,59.83401505822813,
,,,,,,,,,,,,,,,images/fan.png,A,object ,72,None,,,,,,,,,,,,,,,,,,,,,,,,,,,,,,,,,,,,,,,,,,,,,,,,,,,,,,,,,,,,,,,,,,,,,,,,,,,,,,,,,0,71,71,71,,,,,,,,,,,,,,,,,,,,,,,,,,,,,,,,,,,,,,,,,,,,,,,,,,,,,,,,,,,,,,,160.65809481299948,None,None,,160.65809481299948,None,160.65809481299948,None,160.65809481299948,None,160.65809481299948,None,160.65809481299948,None,162.66119196100044,None,4,001,,,2020_Sep_07_1732,reactive_intentional_encoding_looped,3.2.4,59.83401505822813,
,,,,,,,,,,,,,,,images/drum.png,A,object ,73,None,,,,,,,,,,,,,,,,,,,,,,,,,,,,,,,,,,,,,,,,,,,,,,,,,,,,,,,,,,,,,,,,,,,,,,,,,,,,,,,,,0,72,72,72,,,,,,,,,,,,,,,,,,,,,,,,,,,,,,,,,,,,,,,,,,,,,,,,,,,,,,,,,,,,,,,163.39159942700644,None,None,,163.39159942700644,None,163.39159942700644,None,163.39159942700644,None,163.39159942700644,None,163.39159942700644,None,165.39415350800846,None,4,001,,,2020_Sep_07_1732,reactive_intentional_encoding_looped,3.2.4,59.83401505822813,
,,,,,,,,,,,,,,,images/mask_black.jpg,C,object ,74,indirect,,,,,,,,,,,,,,,,,,,,,,,,,,,,,,,,,,,,,,,,,,,,,,,,,,,,,,,,,,,,,,,,,,,,,,,,,,,,,,,,,0,73,73,73,,,,,,,,,,,,,,,,,,,,,,,,,,,,,,,,,,,,,,,,,,,,,,,,,,,,,,,,,,,,,,,165.92311934800819,None,None,,165.92311934800819,None,165.92311934800819,None,165.92311934800819,None,165.92311934800819,None,165.92311934800819,None,167.9235706999898,None,4,001,,,2020_Sep_07_1732,reactive_intentional_encoding_looped,3.2.4,59.83401505822813,
,,,,,,,,,,,,,,,images/drew_barrymore_c.jpg,B,face,75,indirect,,,,,,,,,,,,,,,,,,,,,,,,,,,,,,,,,,,,,,,,,,,,,,,,,,,,,,,,,,,,,,,,,,,,,,,,,,,,,,,,,0,74,74,74,,,,,,,,,,,,,,,,,,,,,,,,,,,,,,,,,,,,,,,,,,,,,,,,,,,,,,,,,,,,,,,168.43027359899133,None,None,,168.43027359899133,None,168.43027359899133,None,168.43027359899133,None,168.43027359899133,None,168.43027359899133,None,170.4459929369914,None,4,001,,,2020_Sep_07_1732,reactive_intentional_encoding_looped,3.2.4,59.83401505822813,
,,,,,,,,,,,,,,,images/milk_shake.jpg,C,object ,76,direct,,,,,,,,,,,,,,,,,,,,,,,,,,,,,,,,,,,,,,,,,,,,,,,,,,,,,,,,,,,,,,,,,,,,,,,,,,,,,,,,,0,75,75,75,,,,,,,,,,,,,,,,,,,,,,,,,,,,,,,,,,,,,,,,,,,,,,,,,,,,,,,,,,,,,,,170.9557671189832,None,None,,170.9557671189832,None,170.9557671189832,None,170.9557671189832,None,170.9557671189832,None,170.9557671189832,None,172.9564646979852,None,4,001,,,2020_Sep_07_1732,reactive_intentional_encoding_looped,3.2.4,59.83401505822813,
,,,,,,,,,,,,,,,images/iguazu_falls_b.jpg,B,scene,77,direct,,,,,,,,,,,,,,,,,,,,,,,,,,,,,,,,,,,,,,,,,,,,,,,,,,,,,,,,,,,,,,,,,,,,,,,,,,,,,,,,,0,76,76,76,,,,,,,,,,,,,,,,,,,,,,,,,,,,,,,,,,,,,,,,,,,,,,,,,,,,,,,,,,,,,,,173.4628920420073,None,None,,173.4628920420073,None,173.4628920420073,None,173.4628920420073,None,173.4628920420073,None,173.4628920420073,None,175.46252067698515,None,4,001,,,2020_Sep_07_1732,reactive_intentional_encoding_looped,3.2.4,59.83401505822813,
,,,,,,,,,,,,,,,images/megaphone.png,C,object ,78,indirect,,,,,,,,,,,,,,,,,,,,,,,,,,,,,,,,,,,,,,,,,,,,,,,,,,,,,,,,,,,,,,,,,,,,,,,,,,,,,,,,,0,77,77,77,,,,,,,,,,,,,,,,,,,,,,,,,,,,,,,,,,,,,,,,,,,,,,,,,,,,,,,,,,,,,,,175.97181611298583,None,None,,175.97181611298583,None,175.97181611298583,None,175.97181611298583,None,175.97181611298583,None,175.97181611298583,None,177.9715897529968,None,4,001,,,2020_Sep_07_1732,reactive_intentional_encoding_looped,3.2.4,59.83401505822813,
,,,,,,,,,,,,,,,images/mark_zuckerberg_c.jpg,B,face,79,indirect,,,,,,,,,,,,,,,,,,,,,,,,,,,,,,,,,,,,,,,,,,,,,,,,,,,,,,,,,,,,,,,,,,,,,,,,,,,,,,,,,0,78,78,78,,,,,,,,,,,,,,,,,,,,,,,,,,,,,,,,,,,,,,,,,,,,,,,,,,,,,,,,,,,,,,,178.47824028899777,None,None,,178.47824028899777,None,178.47824028899777,None,178.47824028899777,None,178.47824028899777,None,178.47824028899777,None,180.47921514799236,None,4,001,,,2020_Sep_07_1732,reactive_intentional_encoding_looped,3.2.4,59.83401505822813,
,,,,,,,,,,,,,,,images/coin.jpg,new,object ,80,None,,,,,,,,,,,,,,,,,,,,,,,,,,,,,,,,,,,,,,,,,,,,,,,,,,,,,,,,,,,,,,,,,,,,,,,,,,,,,,,,,0,79,79,79,,,,,,,,,,,,,,,,,,,,,,,,,,,,,,,,,,,,,,,,,,,,,,,,,,,,,,,,,,,,,,,180.9928788850084,None,None,,180.9928788850084,None,180.9928788850084,None,180.9928788850084,None,180.9928788850084,None,180.9928788850084,None,183.00427080900408,None,4,001,,,2020_Sep_07_1732,reactive_intentional_encoding_looped,3.2.4,59.83401505822813,
,,,,,,,,,,,,,,,images/toyTrain.png,C,object ,81,indirect,,,,,,,,,,,,,,,,,,,,,,,,,,,,,,,,,,,,,,,,,,,,,,,,,,,,,,,,,,,,,,,,,,,,,,,,,,,,,,,,,0,80,80,80,,,,,,,,,,,,,,,,,,,,,,,,,,,,,,,,,,,,,,,,,,,,,,,,,,,,,,,,,,,,,,,183.5216558240063,None,None,,183.5216558240063,None,183.5216558240063,None,183.5216558240063,None,183.5216558240063,None,183.5216558240063,None,185.52158190999762,None,4,001,,,2020_Sep_07_1732,reactive_intentional_encoding_looped,3.2.4,59.83401505822813,
,,,,,,,,,,,,,,,images/bill_gates_a.jpg,B,face,82,indirect,,,,,,,,,,,,,,,,,,,,,,,,,,,,,,,,,,,,,,,,,,,,,,,,,,,,,,,,,,,,,,,,,,,,,,,,,,,,,,,,,0,81,81,81,,,,,,,,,,,,,,,,,,,,,,,,,,,,,,,,,,,,,,,,,,,,,,,,,,,,,,,,,,,,,,,186.0285445949994,None,None,,186.0285445949994,None,186.0285445949994,None,186.0285445949994,None,186.0285445949994,None,186.0285445949994,None,188.02724966098322,None,4,001,,,2020_Sep_07_1732,reactive_intentional_encoding_looped,3.2.4,59.83401505822813,
,,,,,,,,,,,,,,,images/portapotty.png,A,object ,83,None,,,,,,,,,,,,,,,,,,,,,,,,,,,,,,,,,,,,,,,,,,,,,,,,,,,,,,,,,,,,,,,,,,,,,,,,,,,,,,,,,0,82,82,82,,,,,,,,,,,,,,,,,,,,,,,,,,,,,,,,,,,,,,,,,,,,,,,,,,,,,,,,,,,,,,,188.5404479560093,None,None,,188.5404479560093,None,188.5404479560093,None,188.5404479560093,None,188.5404479560093,None,188.5404479560093,None,190.5542531700048,None,4,001,,,2020_Sep_07_1732,reactive_intentional_encoding_looped,3.2.4,59.83401505822813,
,,,,,,,,,,,,,,,images/shoe_pumps.jpg,A,object ,84,None,,,,,,,,,,,,,,,,,,,,,,,,,,,,,,,,,,,,,,,,,,,,,,,,,,,,,,,,,,,,,,,,,,,,,,,,,,,,,,,,,0,83,83,83,,,,,,,,,,,,,,,,,,,,,,,,,,,,,,,,,,,,,,,,,,,,,,,,,,,,,,,,,,,,,,,191.0715228879999,None,None,,191.0715228879999,None,191.0715228879999,None,191.0715228879999,None,191.0715228879999,None,191.0715228879999,None,193.0705148690031,None,4,001,,,2020_Sep_07_1732,reactive_intentional_encoding_looped,3.2.4,59.83401505822813,
,,,,,,,,,,,,,,,images/ribbon.jpg,new,object ,85,None,,,,,,,,,,,,,,,,,,,,,,,,,,,,,,,,,,,,,,,,,,,,,,,,,,,,,,,,,,,,,,,,,,,,,,,,,,,,,,,,,0,84,84,84,,,,,,,,,,,,,,,,,,,,,,,,,,,,,,,,,,,,,,,,,,,,,,,,,,,,,,,,,,,,,,,193.58738278999226,None,None,,193.58738278999226,None,193.58738278999226,None,193.58738278999226,None,193.58738278999226,None,193.58738278999226,None,195.58711506600957,None,4,001,,,2020_Sep_07_1732,reactive_intentional_encoding_looped,3.2.4,59.83401505822813,
,,,,,,,,,,,,,,,images/ring_diamond.png,A,object ,86,None,,,,,,,,,,,,,,,,,,,,,,,,,,,,,,,,,,,,,,,,,,,,,,,,,,,,,,,,,,,,,,,,,,,,,,,,,,,,,,,,,0,85,85,85,,,,,,,,,,,,,,,,,,,,,,,,,,,,,,,,,,,,,,,,,,,,,,,,,,,,,,,,,,,,,,,196.09712888399372,None,None,,196.09712888399372,None,196.09712888399372,None,196.09712888399372,None,196.09712888399372,None,196.09712888399372,None,198.11075723200338,None,4,001,,,2020_Sep_07_1732,reactive_intentional_encoding_looped,3.2.4,59.83401505822813,
,,,,,,,,,,,,,,,images/teddybear_brown.jpg,C,object ,87,direct,,,,,,,,,,,,,,,,,,,,,,,,,,,,,,,,,,,,,,,,,,,,,,,,,,,,,,,,,,,,,,,,,,,,,,,,,,,,,,,,,0,86,86,86,,,,,,,,,,,,,,,,,,,,,,,,,,,,,,,,,,,,,,,,,,,,,,,,,,,,,,,,,,,,,,,198.6268661019858,None,None,,198.6268661019858,None,198.6268661019858,None,198.6268661019858,None,198.6268661019858,None,198.6268661019858,None,200.6278134819877,None,4,001,,,2020_Sep_07_1732,reactive_intentional_encoding_looped,3.2.4,59.83401505822813,
,,,,,,,,,,,,,,,images/cn_tower_b.jpg,B,scene,88,direct,,,,,,,,,,,,,,,,,,,,,,,,,,,,,,,,,,,,,,,,,,,,,,,,,,,,,,,,,,,,,,,,,,,,,,,,,,,,,,,,,0,87,87,87,,,,,,,,,,,,,,,,,,,,,,,,,,,,,,,,,,,,,,,,,,,,,,,,,,,,,,,,,,,,,,,201.13683293698705,None,None,,201.13683293698705,None,201.13683293698705,None,201.13683293698705,None,201.13683293698705,None,201.13683293698705,None,203.14385849400423,None,4,001,,,2020_Sep_07_1732,reactive_intentional_encoding_looped,3.2.4,59.83401505822813,
,,,,,,,,,,,,,,,images/ball_baseball.png,A,object ,89,None,,,,,,,,,,,,,,,,,,,,,,,,,,,,,,,,,,,,,,,,,,,,,,,,,,,,,,,,,,,,,,,,,,,,,,,,,,,,,,,,,0,88,88,88,,,,,,,,,,,,,,,,,,,,,,,,,,,,,,,,,,,,,,,,,,,,,,,,,,,,,,,,,,,,,,,203.65265990700573,None,None,,203.65265990700573,None,203.65265990700573,None,203.65265990700573,None,203.65265990700573,None,203.65265990700573,None,205.65258901499328,None,4,001,,,2020_Sep_07_1732,reactive_intentional_encoding_looped,3.2.4,59.83401505822813,
,,,,,,,,,,,,,,,images/skirt.jpg,A,object ,90,None,,,,,,,,,,,,,,,,,,,,,,,,,,,,,,,,,,,,,,,,,,,,,,,,,,,,,,,,,,,,,,,,,,,,,,,,,,,,,,,,,0,89,89,89,,,,,,,,,,,,,,,,,,,,,,,,,,,,,,,,,,,,,,,,,,,,,,,,,,,,,,,,,,,,,,,206.16891732200747,None,None,,206.16891732200747,None,206.16891732200747,None,206.16891732200747,None,206.16891732200747,None,206.16891732200747,None,208.17774792498676,None,4,001,,,2020_Sep_07_1732,reactive_intentional_encoding_looped,3.2.4,59.83401505822813,
,,,,,,,,,,,,,,,images/firehydrant.png,A,object ,91,None,,,,,,,,,,,,,,,,,,,,,,,,,,,,,,,,,,,,,,,,,,,,,,,,,,,,,,,,,,,,,,,,,,,,,,,,,,,,,,,,,0,90,90,90,,,,,,,,,,,,,,,,,,,,,,,,,,,,,,,,,,,,,,,,,,,,,,,,,,,,,,,,,,,,,,,208.69394040998304,None,None,,208.69394040998304,None,208.69394040998304,None,208.69394040998304,None,208.69394040998304,None,208.69394040998304,None,210.69261457398534,None,4,001,,,2020_Sep_07_1732,reactive_intentional_encoding_looped,3.2.4,59.83401505822813,
,,,,,,,,,,,,,,,images/pacifier.png,C,object ,92,direct,,,,,,,,,,,,,,,,,,,,,,,,,,,,,,,,,,,,,,,,,,,,,,,,,,,,,,,,,,,,,,,,,,,,,,,,,,,,,,,,,0,91,91,91,,,,,,,,,,,,,,,,,,,,,,,,,,,,,,,,,,,,,,,,,,,,,,,,,,,,,,,,,,,,,,,211.20208210399142,None,None,,211.20208210399142,None,211.20208210399142,None,211.20208210399142,None,211.20208210399142,None,211.20208210399142,None,213.21097665198613,None,4,001,,,2020_Sep_07_1732,reactive_intentional_encoding_looped,3.2.4,59.83401505822813,
,,,,,,,,,,,,,,,images/michelle_obama_a.jpg,B,face,93,direct,,,,,,,,,,,,,,,,,,,,,,,,,,,,,,,,,,,,,,,,,,,,,,,,,,,,,,,,,,,,,,,,,,,,,,,,,,,,,,,,,0,92,92,92,,,,,,,,,,,,,,,,,,,,,,,,,,,,,,,,,,,,,,,,,,,,,,,,,,,,,,,,,,,,,,,213.7183630859945,None,None,,213.7183630859945,None,213.7183630859945,None,213.7183630859945,None,213.7183630859945,None,213.7183630859945,None,215.72706364598707,None,4,001,,,2020_Sep_07_1732,reactive_intentional_encoding_looped,3.2.4,59.83401505822813,
,,,,,,,,,,,,,,,images/drill.jpg,A,object ,94,None,,,,,,,,,,,,,,,,,,,,,,,,,,,,,,,,,,,,,,,,,,,,,,,,,,,,,,,,,,,,,,,,,,,,,,,,,,,,,,,,,0,93,93,93,,,,,,,,,,,,,,,,,,,,,,,,,,,,,,,,,,,,,,,,,,,,,,,,,,,,,,,,,,,,,,,216.2440425179957,None,None,,216.2440425179957,None,216.2440425179957,None,216.2440425179957,None,216.2440425179957,None,216.2440425179957,None,218.24409695199574,None,4,001,,,2020_Sep_07_1732,reactive_intentional_encoding_looped,3.2.4,59.83401505822813,
,,,,,,,,,,,,,,,images/orlando_bloom_b.jpg,new,face,95,None,,,,,,,,,,,,,,,,,,,,,,,,,,,,,,,,,,,,,,,,,,,,,,,,,,,,,,,,,,,,,,,,,,,,,,,,,,,,,,,,,0,94,94,94,,,,,,,,,,,,,,,,,,,,,,,,,,,,,,,,,,,,,,,,,,,,,,,,,,,,,,,,,,,,,,,218.75014915099018,None,None,,218.75014915099018,None,218.75014915099018,None,218.75014915099018,None,218.75014915099018,None,218.75014915099018,None,220.7602677519899,None,4,001,,,2020_Sep_07_1732,reactive_intentional_encoding_looped,3.2.4,59.83401505822813,
,,,,,,,,,,,,,,,images/bandage.jpg,A,object ,96,None,,,,,,,,,,,,,,,,,,,,,,,,,,,,,,,,,,,,,,,,,,,,,,,,,,,,,,,,,,,,,,,,,,,,,,,,,,,,,,,,,0,95,95,95,,,,,,,,,,,,,,,,,,,,,,,,,,,,,,,,,,,,,,,,,,,,,,,,,,,,,,,,,,,,,,,221.27717971798847,None,None,,221.27717971798847,None,221.27717971798847,None,221.27717971798847,None,221.27717971798847,None,221.27717971798847,None,223.27702727599535,None,4,001,,,2020_Sep_07_1732,reactive_intentional_encoding_looped,3.2.4,59.83401505822813,
,,,,,,,,,,,,,,,images/waterloo_belgium.jpg,new,scene,97,None,,,,,,,,,,,,,,,,,,,,,,,,,,,,,,,,,,,,,,,,,,,,,,,,,,,,,,,,,,,,,,,,,,,,,,,,,,,,,,,,,0,96,96,96,,,,,,,,,,,,,,,,,,,,,,,,,,,,,,,,,,,,,,,,,,,,,,,,,,,,,,,,,,,,,,,223.78822290999233,None,None,,223.78822290999233,None,223.78822290999233,None,223.78822290999233,None,223.78822290999233,None,223.78822290999233,None,225.79387081600726,None,4,001,,,2020_Sep_07_1732,reactive_intentional_encoding_looped,3.2.4,59.83401505822813,
,,,,,,,,,,,,,,,images/bib.png,A,object ,98,None,,,,,,,,,,,,,,,,,,,,,,,,,,,,,,,,,,,,,,,,,,,,,,,,,,,,,,,,,,,,,,,,,,,,,,,,,,,,,,,,,0,97,97,97,,,,,,,,,,,,,,,,,,,,,,,,,,,,,,,,,,,,,,,,,,,,,,,,,,,,,,,,,,,,,,,226.31041952298256,None,None,,226.31041952298256,None,226.31041952298256,None,226.31041952298256,None,226.31041952298256,None,226.31041952298256,None,228.310781667009,None,4,001,,,2020_Sep_07_1732,reactive_intentional_encoding_looped,3.2.4,59.83401505822813,
,,,,,,,,,,,,,,,images/gateway_brch_b.jpg,new,scene,99,None,,,,,,,,,,,,,,,,,,,,,,,,,,,,,,,,,,,,,,,,,,,,,,,,,,,,,,,,,,,,,,,,,,,,,,,,,,,,,,,,,0,98,98,98,,,,,,,,,,,,,,,,,,,,,,,,,,,,,,,,,,,,,,,,,,,,,,,,,,,,,,,,,,,,,,,228.82041255600052,None,None,,228.82041255600052,None,228.82041255600052,None,228.82041255600052,None,228.82041255600052,None,228.82041255600052,None,230.8266886799829,None,4,001,,,2020_Sep_07_1732,reactive_intentional_encoding_looped,3.2.4,59.83401505822813,
,,,,,,,,,,,,,,,images/dog_toy.png,A,object ,100,None,,,,,,,,,,,,,,,,,,,,,,,,,,,,,,,,,,,,,,,,,,,,,,,,,,,,,,,,,,,,,,,,,,,,,,,,,,,,,,,,,0,99,99,99,,,,,,,,,,,,,,,,,,,,,,,,,,,,,,,,,,,,,,,,,,,,,,,,,,,,,,,,,,,,,,,231.34284238799592,None,None,,231.34284238799592,None,231.34284238799592,None,231.34284238799592,None,231.34284238799592,None,231.34284238799592,None,233.34360453599948,None,4,001,,,2020_Sep_07_1732,reactive_intentional_encoding_looped,3.2.4,59.83401505822813,
,,,,,,,,,,,,,,,images/remotecontrol.png,new,object ,101,None,,,,,,,,,,,,,,,,,,,,,,,,,,,,,,,,,,,,,,,,,,,,,,,,,,,,,,,,,,,,,,,,,,,,,,,,,,,,,,,,,0,100,100,100,,,,,,,,,,,,,,,,,,,,,,,,,,,,,,,,,,,,,,,,,,,,,,,,,,,,,,,,,,,,,,,233.86017673599417,None,None,,233.86017673599417,None,233.86017673599417,None,233.86017673599417,None,233.86017673599417,None,233.86017673599417,None,235.8603385410097,None,4,001,,,2020_Sep_07_1732,reactive_intentional_encoding_looped,3.2.4,59.83401505822813,
,,,,,,,,,,,,,,,images/rope_skipping.png,C,object ,102,indirect,,,,,,,,,,,,,,,,,,,,,,,,,,,,,,,,,,,,,,,,,,,,,,,,,,,,,,,,,,,,,,,,,,,,,,,,,,,,,,,,,0,101,101,101,,,,,,,,,,,,,,,,,,,,,,,,,,,,,,,,,,,,,,,,,,,,,,,,,,,,,,,,,,,,,,,236.36657690198626,None,None,,236.36657690198626,None,236.36657690198626,None,236.36657690198626,None,236.36657690198626,None,236.36657690198626,None,238.37709653799539,None,4,001,,,2020_Sep_07_1732,reactive_intentional_encoding_looped,3.2.4,59.83401505822813,
,,,,,,,,,,,,,,,images/giants_causeway_b.jpg,B,scene,103,indirect,,,,,,,,,,,,,,,,,,,,,,,,,,,,,,,,,,,,,,,,,,,,,,,,,,,,,,,,,,,,,,,,,,,,,,,,,,,,,,,,,0,102,102,102,,,,,,,,,,,,,,,,,,,,,,,,,,,,,,,,,,,,,,,,,,,,,,,,,,,,,,,,,,,,,,,238.88735604699468,None,None,,238.88735604699468,None,238.88735604699468,None,238.88735604699468,None,238.88735604699468,None,238.88735604699468,None,240.89356977000716,None,4,001,,,2020_Sep_07_1732,reactive_intentional_encoding_looped,3.2.4,59.83401505822813,
,,,,,,,,,,,,,,,images/socks_winter.png,A,object ,104,None,,,,,,,,,,,,,,,,,,,,,,,,,,,,,,,,,,,,,,,,,,,,,,,,,,,,,,,,,,,,,,,,,,,,,,,,,,,,,,,,,0,103,103,103,,,,,,,,,,,,,,,,,,,,,,,,,,,,,,,,,,,,,,,,,,,,,,,,,,,,,,,,,,,,,,,241.41062794200843,None,None,,241.41062794200843,None,241.41062794200843,None,241.41062794200843,None,241.41062794200843,None,241.41062794200843,None,243.40988582899445,None,4,001,,,2020_Sep_07_1732,reactive_intentional_encoding_looped,3.2.4,59.83401505822813,
,,,,,,,,,,,,,,,images/stroller.jpg,C,object ,105,direct,,,,,,,,,,,,,,,,,,,,,,,,,,,,,,,,,,,,,,,,,,,,,,,,,,,,,,,,,,,,,,,,,,,,,,,,,,,,,,,,,0,104,104,104,,,,,,,,,,,,,,,,,,,,,,,,,,,,,,,,,,,,,,,,,,,,,,,,,,,,,,,,,,,,,,,243.93307154698414,None,None,,243.93307154698414,None,243.93307154698414,None,243.93307154698414,None,243.93307154698414,None,243.93307154698414,None,245.94352478100336,None,4,001,,,2020_Sep_07_1732,reactive_intentional_encoding_looped,3.2.4,59.83401505822813,
,,,,,,,,,,,,,,,images/acropolis_c.jpg,B,scene,106,direct,,,,,,,,,,,,,,,,,,,,,,,,,,,,,,,,,,,,,,,,,,,,,,,,,,,,,,,,,,,,,,,,,,,,,,,,,,,,,,,,,0,105,105,105,,,,,,,,,,,,,,,,,,,,,,,,,,,,,,,,,,,,,,,,,,,,,,,,,,,,,,,,,,,,,,,246.4598115120025,None,None,,246.4598115120025,None,246.4598115120025,None,246.4598115120025,None,246.4598115120025,None,246.4598115120025,None,248.4603420830099,None,4,001,,,2020_Sep_07_1732,reactive_intentional_encoding_looped,3.2.4,59.83401505822813,
