instructions1,Instructions2,Image1,Image2,Image3,Image_4,position_1x,position_1y,position_2x,position_2y,J_key,K_key,L_key,yes_text,no_text,Image,image_type,category,trial_number,pair_indicator,instruction_intentional_encoding.thisRepN,instruction_intentional_encoding.thisTrialN,instruction_intentional_encoding.thisN,instruction_intentional_encoding.thisIndex,practice_trials_intentional_encoding.thisRepN,practice_trials_intentional_encoding.thisTrialN,practice_trials_intentional_encoding.thisN,practice_trials_intentional_encoding.thisIndex,trials.thisRepN,trials.thisTrialN,trials.thisN,trials.thisIndex,trials_4.thisRepN,trials_4.thisTrialN,trials_4.thisN,trials_4.thisIndex,trials_2.thisRepN,trials_2.thisTrialN,trials_2.thisN,trials_2.thisIndex,trials_5.thisRepN,trials_5.thisTrialN,trials_5.thisN,trials_5.thisIndex,trials_3.thisRepN,trials_3.thisTrialN,trials_3.thisN,trials_3.thisIndex,trials_6.thisRepN,trials_6.thisTrialN,trials_6.thisN,trials_6.thisIndex,trials_7.thisRepN,trials_7.thisTrialN,trials_7.thisN,trials_7.thisIndex,trials_8.thisRepN,trials_8.thisTrialN,trials_8.thisN,trials_8.thisIndex,trials_9.thisRepN,trials_9.thisTrialN,trials_9.thisN,trials_9.thisIndex,trials_10.thisRepN,trials_10.thisTrialN,trials_10.thisN,trials_10.thisIndex,trials_11.thisRepN,trials_11.thisTrialN,trials_11.thisN,trials_11.thisIndex,trials_12.thisRepN,trials_12.thisTrialN,trials_12.thisN,trials_12.thisIndex,trials_13.thisRepN,trials_13.thisTrialN,trials_13.thisN,trials_13.thisIndex,trials_15.thisRepN,trials_15.thisTrialN,trials_15.thisN,trials_15.thisIndex,trials_18.thisRepN,trials_18.thisTrialN,trials_18.thisN,trials_18.thisIndex,trials_17.thisRepN,trials_17.thisTrialN,trials_17.thisN,trials_17.thisIndex,trials_19.thisRepN,trials_19.thisTrialN,trials_19.thisN,trials_19.thisIndex,trials_20.thisRepN,trials_20.thisTrialN,trials_20.thisN,trials_20.thisIndex,trials_21.thisRepN,trials_21.thisTrialN,trials_21.thisN,trials_21.thisIndex,text_9.started,text_9.stopped,key_resp_3.keys,key_resp_3.rt,key_resp_3.started,key_resp_3.stopped,post_retreival_practice_intructions.started,post_retreival_practice_intructions.stopped,key_resp_4.keys,key_resp_4.rt,key_resp_4.started,key_resp_4.stopped,text_12.started,text_12.stopped,key_resp_6.keys,key_resp_6.rt,key_resp_6.started,key_resp_6.stopped,text_13.started,text_13.stopped,key_resp_7.keys,key_resp_7.rt,key_resp_7.started,key_resp_7.stopped,text_15.started,text_15.stopped,key_resp_8.keys,key_resp_8.rt,key_resp_8.started,key_resp_8.stopped,text_2.started,text_2.stopped,key_resp_14.keys,key_resp_14.rt,key_resp_14.started,key_resp_14.stopped,text_14.started,text_14.stopped,pressspace.started,pressspace.stopped,key_resp_16.keys,key_resp_16.rt,key_resp_16.started,key_resp_16.stopped,image_17.started,image_17.stopped,Jkey.started,Jkey.stopped,F_key.started,F_key.stopped,oldText.started,oldText.stopped,newtext.started,newtext.stopped,text_27.started,text_27.stopped,key_resp_18.keys,key_resp_18.rt,key_resp_18.started,key_resp_18.stopped,image_oldnew.started,image_oldnew.stopped,imageabc.started,imageabc.stopped,key_resp_17.keys,key_resp_17.rt,key_resp_17.started,key_resp_17.stopped,Jkey_2.started,Jkey_2.stopped,F_key_2.started,F_key_2.stopped,old.started,old.stopped,newtext_2.started,newtext_2.stopped,fixation_.started,fixation_.stopped,text_28.started,text_28.stopped,exit.keys,exit.rt,exit.started,exit.stopped,participant,sex,age,,date,expName,psychopyVersion,frameRate,
,,,,,,,,,,,,,,,,,,,,,,,,,,,,,,,,,,,,,,,,,,,,,,,,,,,,,,,,,,,,,,,,,,,,,,,,,,,,,,,,,,,,,,,,,,,,,,,,,,,,,,,,7.675273404020118,None,space,0.032755292020738125,8.160777700017206,None,,,,,,,,,,,,,,,,,,,,,,,,,,,,,,,,,,,,,,,,,,,,,,,,,,,,,,,,,,,,,,,,,,,,,,,,,,,,,,,4,001,,,2020_Sep_07_1737,reactive_intentional_encoding_looped,3.2.4,60.10093736129692,
,,,,,,,,,,,,,,,,,,,,,,,,,,,,,,,,,,,,,,,,,,,,,,,,,,,,,,,,,,,,,,,,,,,,,,,,,,,,,,,,,,,,,,,,,,,,,,,,,,,,,,,,,,,,,,8.241593274025945,None,space,0.2855668269912712,8.241593274025945,None,,,,,,,,,,,,,,,,,,,,,,,,,,,,,,,,,,,,,,,,,,,,,,,,,,,,,,,,,,,,,,,,,,,,,,,,,4,001,,,2020_Sep_07_1737,reactive_intentional_encoding_looped,3.2.4,60.10093736129692,
,,,,,,,,,,,,,,,,,,,,,,,,,,,,,,,,,,,,,,,,,,,,,,,,,,,,,,,,,,,,,,,,,,,,,,,,,,,,,,,,,,,,,,,,,,,,,,,,,,,,,,,,,,,,,,,,,,,,8.59349120000843,None,space,0.017358559009153396,8.810902094002813,None,,,,,,,,,,,,,,,,,,,,,,,,,,,,,,,,,,,,,,,,,,,,,,,,,,,,,,,,,,,,,,,,,,,4,001,,,2020_Sep_07_1737,reactive_intentional_encoding_looped,3.2.4,60.10093736129692,
,,,,,,,,,,,,,,,,,,,,,,,,,,,,,,,,,,,,,,,,,,,,,,,,,,,,,,,,,,,,,,,,,,,,,,,,,,,,,,,,,,,,,,,,,,,,,,,,,,,,,,,,,,,,,,,,,,,,,,,,,,8.87474686402129,None,space,0.2453696750162635,8.87474686402129,None,,,,,,,,,,,,,,,,,,,,,,,,,,,,,,,,,,,,,,,,,,,,,,,,,,,,,,,,,,,,,4,001,,,2020_Sep_07_1737,reactive_intentional_encoding_looped,3.2.4,60.10093736129692,
,,,,,,,,,,,,,,,,,,,,,,,,,,,,,,,,,,,,,,,,,,,,,,,,,,,,,,,,,,,,,,,,,,,,,,,,,,,,,,,,,,,,,,,,,,,,,,,,,,,,,,,,,,,,,,,,,,,,9.178358065022621,None,space,0.022290982014965266,9.393999424006324,None,,,,,,,,,,,,,,,,,,,,,,,,,,,,,,,,,,,,,,,,,,,,,,,,,,,,,,,,,,,,,,,,,,,4,001,,,2020_Sep_07_1737,reactive_intentional_encoding_looped,3.2.4,60.10093736129692,
,,,,,,,,,,,,,,,,,,,,,,,,,,,,,,,,,,,,,,,,,,,,,,,,,,,,,,,,,,,,,,,,,,,,,,,,,,,,,,,,,,,,,,,,,,,,,,,,,,,,,,,,,,,,,,,,,,,,,,,,,,9.458300018013688,None,space,0.25505429098848253,9.458300018013688,None,,,,,,,,,,,,,,,,,,,,,,,,,,,,,,,,,,,,,,,,,,,,,,,,,,,,,,,,,,,,,4,001,,,2020_Sep_07_1737,reactive_intentional_encoding_looped,3.2.4,60.10093736129692,
,,,,,,,,,,,,,,,,,,,,,,,,,,,,,,,,,,,,,,,,,,,,,,,,,,,,,,,,,,,,,,,,,,,,,,,,,,,,,,,,,,,,,,,,,,,,,,,,,,,,,,,,,,,,,,,,,,,,9.77659855800448,None,space,0.057739896001294255,9.994405260018539,None,,,,,,,,,,,,,,,,,,,,,,,,,,,,,,,,,,,,,,,,,,,,,,,,,,,,,,,,,,,,,,,,,,,4,001,,,2020_Sep_07_1737,reactive_intentional_encoding_looped,3.2.4,60.10093736129692,
,,,,,,,,,,,,,,,,,,,,,,,,,,,,,,,,,,,,,,,,,,,,,,,,,,,,,,,,,,,,,,,,,,,,,,,,,,,,,,,,,,,,,,,,,,,,,,,,,,,,,,,,,,,,,,,,,,,,,,,,,,10.091905608016532,None,space,0.39825892000226304,10.091905608016532,None,,,,,,,,,,,,,,,,,,,,,,,,,,,,,,,,,,,,,,,,,,,,,,,,,,,,,,,,,,,,,4,001,,,2020_Sep_07_1737,reactive_intentional_encoding_looped,3.2.4,60.10093736129692,
,,,,,,,,,,,,,,,,,,,,,,,,,,,,,,,,,,,,,,,,,,,,,,,,,,,,,,,,,,,,,,,,,,,,,,,,,,,,,,,,,,,,,,,,,,,,,,,,,,,,,,,,,,,,,,,,,,,,,,,,,,,,,,,,10.523598746018251,None,space,0.2874623870011419,10.523598746018251,None,,,,,,,,,,,,,,,,,,,,,,,,,,,,,,,,,,,,,,,,,,,,,,,,,,,,,,,4,001,,,2020_Sep_07_1737,reactive_intentional_encoding_looped,3.2.4,60.10093736129692,
,,,,,,,,,,,,,,,,,,,,,,,,,,,,,,,,,,,,,,,,,,,,,,,,,,,,,,,,,,,,,,,,,,,,,,,,,,,,,,,,,,,,,,,,,,,,,,,,,,,,,,,,,,,,,,,,,,,,,,,,,,,,,,,,,,,,,,10.874762572027976,None,space,0.2595271309837699,10.874762572027976,None,,,,,,,,,,,,,,,,,,,,,,,,,,,,,,,,,,,,,,,,,,,,,,,,,4,001,,,2020_Sep_07_1737,reactive_intentional_encoding_looped,3.2.4,60.10093736129692,
"You're now almost finished the task! In the last part, you will do another memory test. You will be shown an image, like below, on each trial. Your job is to indicate whether you have seen this image before. If you have seen the image before, press 'f' to indicate that it is old. If you haven't seen this image before, press 'j' to indicate the image is new.",Press space to continue!,instruction_images/oldBook.png,None,None,None,None,None,None,None,J,F,None,old,new,,,,,,,,,,,,,,,,,,,,,,,,,,,,,,,,,,,,,,,,,,,,,,,,,,,,,,,,,,,,,,,,,,,,,,,,,,,,,,0,0,0,0,,,,,,,,,,,,,,,,,,,,,,,,,,,,,,,,,,,,,,,,,,,,,11.31326376501238,None,11.31326376501238,None,space,0.28210071797366254,11.31326376501238,None,11.31326376501238,None,11.31326376501238,None,11.31326376501238,None,11.31326376501238,None,11.31326376501238,None,,,,,,,,,,,,,,,,,,,,,,,,,,,,,,,4,001,,,2020_Sep_07_1737,reactive_intentional_encoding_looped,3.2.4,60.10093736129692,
"Since you have seen the book before, you should select 'f' to indicate the book is old.",Press space to continue!,instruction_images/oldBook.png,None,None,None,None,None,None,None,J,F,None,old,new,,,,,,,,,,,,,,,,,,,,,,,,,,,,,,,,,,,,,,,,,,,,,,,,,,,,,,,,,,,,,,,,,,,,,,,,,,,,,,0,1,1,1,,,,,,,,,,,,,,,,,,,,,,,,,,,,,,,,,,,,,,,,,,,,,11.647025337006198,None,11.647025337006198,None,space,0.3460906709951814,11.647025337006198,None,11.647025337006198,None,11.647025337006198,None,11.647025337006198,None,11.647025337006198,None,11.647025337006198,None,,,,,,,,,,,,,,,,,,,,,,,,,,,,,,,4,001,,,2020_Sep_07_1737,reactive_intentional_encoding_looped,3.2.4,60.10093736129692,
This test is timed. You have a limit of 2 seconds to respond. So try to respond as quickly as possible.,Press space to continue!,instruction_images/oldBook.png,None,None,None,None,None,None,None,J,F,None,old,new,,,,,,,,,,,,,,,,,,,,,,,,,,,,,,,,,,,,,,,,,,,,,,,,,,,,,,,,,,,,,,,,,,,,,,,,,,,,,,0,2,2,2,,,,,,,,,,,,,,,,,,,,,,,,,,,,,,,,,,,,,,,,,,,,,12.041216719022486,None,12.041216719022486,None,space,0.2921421529899817,12.041216719022486,None,12.041216719022486,None,12.041216719022486,None,12.041216719022486,None,12.041216719022486,None,12.041216719022486,None,,,,,,,,,,,,,,,,,,,,,,,,,,,,,,,4,001,,,2020_Sep_07_1737,reactive_intentional_encoding_looped,3.2.4,60.10093736129692,
"First we will do a practice. When you’re ready to start the practice, press the space bar. ",Press space to continue!,instruction_images/oldBook.png,None,None,None,None,None,None,None,J,F,None,old,new,,,,,,,,,,,,,,,,,,,,,,,,,,,,,,,,,,,,,,,,,,,,,,,,,,,,,,,,,,,,,,,,,,,,,,,,,,,,,,0,3,3,3,,,,,,,,,,,,,,,,,,,,,,,,,,,,,,,,,,,,,,,,,,,,,12.391373260004912,None,12.391373260004912,None,space,0.2647097519948147,12.391373260004912,None,12.391373260004912,None,12.391373260004912,None,12.391373260004912,None,12.391373260004912,None,12.391373260004912,None,,,,,,,,,,,,,,,,,,,,,,,,,,,,,,,4,001,,,2020_Sep_07_1737,reactive_intentional_encoding_looped,3.2.4,60.10093736129692,
None,Press space to continue!,instruction_images/oldBook.png,None,None,None,None,None,None,None,J,F,None,old,new,,,,,,,,,,,,,,,,,,,,,,,,,,,,,,,,,,,,,,,,,,,,,,,,,,,,,,,,,,,,,,,,,,,,,,,,,,,,,,0,4,4,4,,,,,,,,,,,,,,,,,,,,,,,,,,,,,,,,,,,,,,,,,,,,,12.707049019023543,None,12.707049019023543,None,space,0.3980114540026989,12.707049019023543,None,12.707049019023543,None,12.707049019023543,None,12.707049019023543,None,12.707049019023543,None,12.707049019023543,None,,,,,,,,,,,,,,,,,,,,,,,,,,,,,,,4,001,,,2020_Sep_07_1737,reactive_intentional_encoding_looped,3.2.4,60.10093736129692,
,,,,,,,,,,,,,,,,,,,,,,,,,,,,,,,,,,,,,,,,,,,,,,,,,,,,,,,,,,,,,,,,,,,,,,,,,,,,,,,,,,,,,,,,,,,,,,,,,,,,,,,,,,,,,,,,,,,,,,,,,,,,,,,,,,,,,,,,,,,,,,,,,,,,,,,,,,,,,,13.140718555019703,None,space,0.97629754798254,13.140718555019703,None,,,,,,,,,,,,,,,,,,,,,,,,,4,001,,,2020_Sep_07_1737,reactive_intentional_encoding_looped,3.2.4,60.10093736129692,
,,,,,,,,,,,,,,,images/quartz.png,A,object ,1,None,,,,,,,,,,,,,,,,,,,,,,,,,,,,,,,,,,,,,,,,,,,,,,,,,,,,,,,,,,,,,,,,,,,,,,,,,,,,,,,,,0,0,0,0,,,,,,,,,,,,,,,,,,,,,,,,,,,,,,,,,,,,,,,,,,,,,,,,,,,,,,,,,,,,,13.140718555019703,None,14.189915193011984,None,space,0.4702505810128059,14.189915193011984,None,14.189915193011984,None,14.189915193011984,None,14.189915193011984,None,14.189915193011984,None,14.689734162006062,None,,,,,,,4,001,,,2020_Sep_07_1737,reactive_intentional_encoding_looped,3.2.4,60.10093736129692,
,,,,,,,,,,,,,,,images/feather.png,A,object ,2,None,,,,,,,,,,,,,,,,,,,,,,,,,,,,,,,,,,,,,,,,,,,,,,,,,,,,,,,,,,,,,,,,,,,,,,,,,,,,,,,,,0,1,1,1,,,,,,,,,,,,,,,,,,,,,,,,,,,,,,,,,,,,,,,,,,,,,,,,,,,,,,,,,,,,,,,15.206502151006134,None,space,0.35346743202535436,15.206502151006134,None,15.206502151006134,None,15.206502151006134,None,15.206502151006134,None,15.206502151006134,None,15.577112003025832,None,,,,,,,4,001,,,2020_Sep_07_1737,reactive_intentional_encoding_looped,3.2.4,60.10093736129692,
,,,,,,,,,,,,,,,images/mannequin.jpg,A,object ,3,None,,,,,,,,,,,,,,,,,,,,,,,,,,,,,,,,,,,,,,,,,,,,,,,,,,,,,,,,,,,,,,,,,,,,,,,,,,,,,,,,,0,2,2,2,,,,,,,,,,,,,,,,,,,,,,,,,,,,,,,,,,,,,,,,,,,,,,,,,,,,,,,,,,,,,,,16.09047865701723,None,space,0.2614209000021219,16.09047865701723,None,16.09047865701723,None,16.09047865701723,None,16.09047865701723,None,16.09047865701723,None,16.377641788014444,None,,,,,,,4,001,,,2020_Sep_07_1737,reactive_intentional_encoding_looped,3.2.4,60.10093736129692,
,,,,,,,,,,,,,,,images/westminster_bbbey_b.jpg,new,scene,4,None,,,,,,,,,,,,,,,,,,,,,,,,,,,,,,,,,,,,,,,,,,,,,,,,,,,,,,,,,,,,,,,,,,,,,,,,,,,,,,,,,0,3,3,3,,,,,,,,,,,,,,,,,,,,,,,,,,,,,,,,,,,,,,,,,,,,,,,,,,,,,,,,,,,,,,,16.890281964006135,None,space,0.2696048110083211,16.890281964006135,None,16.890281964006135,None,16.890281964006135,None,16.890281964006135,None,16.890281964006135,None,17.17762900600792,None,,,,,,,4,001,,,2020_Sep_07_1737,reactive_intentional_encoding_looped,3.2.4,60.10093736129692,
,,,,,,,,,,,,,,,images/outhouse.png,C,object ,5,direct,,,,,,,,,,,,,,,,,,,,,,,,,,,,,,,,,,,,,,,,,,,,,,,,,,,,,,,,,,,,,,,,,,,,,,,,,,,,,,,,,0,4,4,4,,,,,,,,,,,,,,,,,,,,,,,,,,,,,,,,,,,,,,,,,,,,,,,,,,,,,,,,,,,,,,,17.70682629602379,None,space,0.3301264650071971,17.70682629602379,None,17.70682629602379,None,17.70682629602379,None,17.70682629602379,None,17.70682629602379,None,18.060137015010696,None,,,,,,,4,001,,,2020_Sep_07_1737,reactive_intentional_encoding_looped,3.2.4,60.10093736129692,
,,,,,,,,,,,,,,,images/neil_patrick_harris.jpg,B,face,6,direct,,,,,,,,,,,,,,,,,,,,,,,,,,,,,,,,,,,,,,,,,,,,,,,,,,,,,,,,,,,,,,,,,,,,,,,,,,,,,,,,,0,5,5,5,,,,,,,,,,,,,,,,,,,,,,,,,,,,,,,,,,,,,,,,,,,,,,,,,,,,,,,,,,,,,,,18.572724693018245,None,space,0.26207706599961966,18.572724693018245,None,18.572724693018245,None,18.572724693018245,None,18.572724693018245,None,18.572724693018245,None,18.860101482016034,None,,,,,,,4,001,,,2020_Sep_07_1737,reactive_intentional_encoding_looped,3.2.4,60.10093736129692,
,,,,,,,,,,,,,,,images/martin_scorsese_a.jpg,new,face,7,None,,,,,,,,,,,,,,,,,,,,,,,,,,,,,,,,,,,,,,,,,,,,,,,,,,,,,,,,,,,,,,,,,,,,,,,,,,,,,,,,,0,6,6,6,,,,,,,,,,,,,,,,,,,,,,,,,,,,,,,,,,,,,,,,,,,,,,,,,,,,,,,,,,,,,,,19.365567705011927,None,space,0.2952855179901235,19.365567705011927,None,19.365567705011927,None,19.365567705011927,None,19.365567705011927,None,19.365567705011927,None,19.693032465002034,None,,,,,,,4,001,,,2020_Sep_07_1737,reactive_intentional_encoding_looped,3.2.4,60.10093736129692,
,,,,,,,,,,,,,,,images/microwave.png,C,object ,8,direct,,,,,,,,,,,,,,,,,,,,,,,,,,,,,,,,,,,,,,,,,,,,,,,,,,,,,,,,,,,,,,,,,,,,,,,,,,,,,,,,,0,7,7,7,,,,,,,,,,,,,,,,,,,,,,,,,,,,,,,,,,,,,,,,,,,,,,,,,,,,,,,,,,,,,,,20.20667447001324,None,space,0.26308480798616074,20.20667447001324,None,20.20667447001324,None,20.20667447001324,None,20.20667447001324,None,20.20667447001324,None,20.49390773201594,None,,,,,,,4,001,,,2020_Sep_07_1737,reactive_intentional_encoding_looped,3.2.4,60.10093736129692,
,,,,,,,,,,,,,,,images/empire_state_building_a.jpg,B,scene,9,direct,,,,,,,,,,,,,,,,,,,,,,,,,,,,,,,,,,,,,,,,,,,,,,,,,,,,,,,,,,,,,,,,,,,,,,,,,,,,,,,,,0,8,8,8,,,,,,,,,,,,,,,,,,,,,,,,,,,,,,,,,,,,,,,,,,,,,,,,,,,,,,,,,,,,,,,21.00578483802383,None,space,0.24913116899551824,21.00578483802383,None,21.00578483802383,None,21.00578483802383,None,21.00578483802383,None,21.00578483802383,None,21.27705819401308,None,,,,,,,4,001,,,2020_Sep_07_1737,reactive_intentional_encoding_looped,3.2.4,60.10093736129692,
,,,,,,,,,,,,,,,images/pylonTraffic.jpg,new,object ,10,None,,,,,,,,,,,,,,,,,,,,,,,,,,,,,,,,,,,,,,,,,,,,,,,,,,,,,,,,,,,,,,,,,,,,,,,,,,,,,,,,,0,9,9,9,,,,,,,,,,,,,,,,,,,,,,,,,,,,,,,,,,,,,,,,,,,,,,,,,,,,,,,,,,,,,,,21.789447415008908,None,space,0.17567372298799455,21.789447415008908,None,21.789447415008908,None,21.789447415008908,None,21.789447415008908,None,21.789447415008908,None,21.99296717401012,None,,,,,,,4,001,,,2020_Sep_07_1737,reactive_intentional_encoding_looped,3.2.4,60.10093736129692,
,,,,,,,,,,,,,,,images/qtip.png,new,object ,11,None,,,,,,,,,,,,,,,,,,,,,,,,,,,,,,,,,,,,,,,,,,,,,,,,,,,,,,,,,,,,,,,,,,,,,,,,,,,,,,,,,0,10,10,10,,,,,,,,,,,,,,,,,,,,,,,,,,,,,,,,,,,,,,,,,,,,,,,,,,,,,,,,,,,,,,,22.497618048015283,None,space,1.1950598640250973,22.497618048015283,None,22.497618048015283,None,22.497618048015283,None,22.497618048015283,None,22.497618048015283,None,23.71157200500602,None,,,,,,,4,001,,,2020_Sep_07_1737,reactive_intentional_encoding_looped,3.2.4,60.10093736129692,
,,,,,,,,,,,,,,,images/washington_monument_a.jpg,new,scene,12,None,,,,,,,,,,,,,,,,,,,,,,,,,,,,,,,,,,,,,,,,,,,,,,,,,,,,,,,,,,,,,,,,,,,,,,,,,,,,,,,,,0,11,11,11,,,,,,,,,,,,,,,,,,,,,,,,,,,,,,,,,,,,,,,,,,,,,,,,,,,,,,,,,,,,,,,24.23952361001284,None,space,0.021266276016831398,24.23952361001284,None,24.23952361001284,None,24.23952361001284,None,24.23952361001284,None,24.23952361001284,None,24.2772136410058,None,,,,,,,4,001,,,2020_Sep_07_1737,reactive_intentional_encoding_looped,3.2.4,60.10093736129692,
,,,,,,,,,,,,,,,images/puzzlepiece.png,A,object ,13,None,,,,,,,,,,,,,,,,,,,,,,,,,,,,,,,,,,,,,,,,,,,,,,,,,,,,,,,,,,,,,,,,,,,,,,,,,,,,,,,,,0,12,12,12,,,,,,,,,,,,,,,,,,,,,,,,,,,,,,,,,,,,,,,,,,,,,,,,,,,,,,,,,,,,,,,24.78870479701436,None,None,,24.78870479701436,None,24.78870479701436,None,24.78870479701436,None,24.78870479701436,None,24.78870479701436,None,26.79323023100733,None,,,,,,,4,001,,,2020_Sep_07_1737,reactive_intentional_encoding_looped,3.2.4,60.10093736129692,
,,,,,,,,,,,,,,,images/newspaper_stack.png,C,object ,14,direct,,,,,,,,,,,,,,,,,,,,,,,,,,,,,,,,,,,,,,,,,,,,,,,,,,,,,,,,,,,,,,,,,,,,,,,,,,,,,,,,,0,13,13,13,,,,,,,,,,,,,,,,,,,,,,,,,,,,,,,,,,,,,,,,,,,,,,,,,,,,,,,,,,,,,,,27.304959899018286,None,None,,27.304959899018286,None,27.304959899018286,None,27.304959899018286,None,27.304959899018286,None,27.304959899018286,None,29.30525677400874,None,,,,,,,4,001,,,2020_Sep_07_1737,reactive_intentional_encoding_looped,3.2.4,60.10093736129692,
,,,,,,,,,,,,,,,images/james_franco_c.jpg,B,face,15,direct,,,,,,,,,,,,,,,,,,,,,,,,,,,,,,,,,,,,,,,,,,,,,,,,,,,,,,,,,,,,,,,,,,,,,,,,,,,,,,,,,0,14,14,14,,,,,,,,,,,,,,,,,,,,,,,,,,,,,,,,,,,,,,,,,,,,,,,,,,,,,,,,,,,,,,,29.82221764200949,None,None,,29.82221764200949,None,29.82221764200949,None,29.82221764200949,None,29.82221764200949,None,29.82221764200949,None,31.821658910019323,None,,,,,,,4,001,,,2020_Sep_07_1737,reactive_intentional_encoding_looped,3.2.4,60.10093736129692,
,,,,,,,,,,,,,,,images/donutFloaty.jpg,A,object ,16,None,,,,,,,,,,,,,,,,,,,,,,,,,,,,,,,,,,,,,,,,,,,,,,,,,,,,,,,,,,,,,,,,,,,,,,,,,,,,,,,,,0,15,15,15,,,,,,,,,,,,,,,,,,,,,,,,,,,,,,,,,,,,,,,,,,,,,,,,,,,,,,,,,,,,,,,32.33891273001791,None,None,,32.33891273001791,None,32.33891273001791,None,32.33891273001791,None,32.33891273001791,None,32.33891273001791,None,34.338333876017714,None,,,,,,,4,001,,,2020_Sep_07_1737,reactive_intentional_encoding_looped,3.2.4,60.10093736129692,
,,,,,,,,,,,,,,,images/lotus_temple_a.jpg,new,scene,17,None,,,,,,,,,,,,,,,,,,,,,,,,,,,,,,,,,,,,,,,,,,,,,,,,,,,,,,,,,,,,,,,,,,,,,,,,,,,,,,,,,0,16,16,16,,,,,,,,,,,,,,,,,,,,,,,,,,,,,,,,,,,,,,,,,,,,,,,,,,,,,,,,,,,,,,,34.85540930801653,None,None,,34.85540930801653,None,34.85540930801653,None,34.85540930801653,None,34.85540930801653,None,34.85540930801653,None,36.85452130701742,None,,,,,,,4,001,,,2020_Sep_07_1737,reactive_intentional_encoding_looped,3.2.4,60.10093736129692,
,,,,,,,,,,,,,,,images/antlerheadband.png,new,object ,18,None,,,,,,,,,,,,,,,,,,,,,,,,,,,,,,,,,,,,,,,,,,,,,,,,,,,,,,,,,,,,,,,,,,,,,,,,,,,,,,,,,0,17,17,17,,,,,,,,,,,,,,,,,,,,,,,,,,,,,,,,,,,,,,,,,,,,,,,,,,,,,,,,,,,,,,,37.361488035006914,None,None,,37.361488035006914,None,37.361488035006914,None,37.361488035006914,None,37.361488035006914,None,37.361488035006914,None,39.37673659902066,None,,,,,,,4,001,,,2020_Sep_07_1737,reactive_intentional_encoding_looped,3.2.4,60.10093736129692,
,,,,,,,,,,,,,,,images/champagne.jpg,A,object ,19,None,,,,,,,,,,,,,,,,,,,,,,,,,,,,,,,,,,,,,,,,,,,,,,,,,,,,,,,,,,,,,,,,,,,,,,,,,,,,,,,,,0,18,18,18,,,,,,,,,,,,,,,,,,,,,,,,,,,,,,,,,,,,,,,,,,,,,,,,,,,,,,,,,,,,,,,39.88762221499928,None,None,,39.88762221499928,None,39.88762221499928,None,39.88762221499928,None,39.88762221499928,None,39.88762221499928,None,41.887302436021855,None,,,,,,,4,001,,,2020_Sep_07_1737,reactive_intentional_encoding_looped,3.2.4,60.10093736129692,
,,,,,,,,,,,,,,,images/bag_gift.png,A,object ,20,None,,,,,,,,,,,,,,,,,,,,,,,,,,,,,,,,,,,,,,,,,,,,,,,,,,,,,,,,,,,,,,,,,,,,,,,,,,,,,,,,,0,19,19,19,,,,,,,,,,,,,,,,,,,,,,,,,,,,,,,,,,,,,,,,,,,,,,,,,,,,,,,,,,,,,,,42.40346525600762,None,None,,42.40346525600762,None,42.40346525600762,None,42.40346525600762,None,42.40346525600762,None,42.40346525600762,None,44.40389942700858,None,,,,,,,4,001,,,2020_Sep_07_1737,reactive_intentional_encoding_looped,3.2.4,60.10093736129692,
,,,,,,,,,,,,,,,images/trafalgar_square_a.jpg,new,scene,21,None,,,,,,,,,,,,,,,,,,,,,,,,,,,,,,,,,,,,,,,,,,,,,,,,,,,,,,,,,,,,,,,,,,,,,,,,,,,,,,,,,0,20,20,20,,,,,,,,,,,,,,,,,,,,,,,,,,,,,,,,,,,,,,,,,,,,,,,,,,,,,,,,,,,,,,,44.910718289000215,None,None,,44.910718289000215,None,44.910718289000215,None,44.910718289000215,None,44.910718289000215,None,44.910718289000215,None,46.91071282100165,None,,,,,,,4,001,,,2020_Sep_07_1737,reactive_intentional_encoding_looped,3.2.4,60.10093736129692,
,,,,,,,,,,,,,,,images/kirsten_dunst_a.jpg,new,face,22,None,,,,,,,,,,,,,,,,,,,,,,,,,,,,,,,,,,,,,,,,,,,,,,,,,,,,,,,,,,,,,,,,,,,,,,,,,,,,,,,,,0,21,21,21,,,,,,,,,,,,,,,,,,,,,,,,,,,,,,,,,,,,,,,,,,,,,,,,,,,,,,,,,,,,,,,47.42021105700405,None,None,,47.42021105700405,None,47.42021105700405,None,47.42021105700405,None,47.42021105700405,None,47.42021105700405,None,49.419390823022695,None,,,,,,,4,001,,,2020_Sep_07_1737,reactive_intentional_encoding_looped,3.2.4,60.10093736129692,
,,,,,,,,,,,,,,,images/pajamas.png,C,object ,23,direct,,,,,,,,,,,,,,,,,,,,,,,,,,,,,,,,,,,,,,,,,,,,,,,,,,,,,,,,,,,,,,,,,,,,,,,,,,,,,,,,,0,22,22,22,,,,,,,,,,,,,,,,,,,,,,,,,,,,,,,,,,,,,,,,,,,,,,,,,,,,,,,,,,,,,,,49.93666513200151,None,None,,49.93666513200151,None,49.93666513200151,None,49.93666513200151,None,49.93666513200151,None,49.93666513200151,None,51.9357822080201,None,,,,,,,4,001,,,2020_Sep_07_1737,reactive_intentional_encoding_looped,3.2.4,60.10093736129692,
,,,,,,,,,,,,,,,images/machu_picchu_c.jpg,B,scene,24,direct,,,,,,,,,,,,,,,,,,,,,,,,,,,,,,,,,,,,,,,,,,,,,,,,,,,,,,,,,,,,,,,,,,,,,,,,,,,,,,,,,0,23,23,23,,,,,,,,,,,,,,,,,,,,,,,,,,,,,,,,,,,,,,,,,,,,,,,,,,,,,,,,,,,,,,,52.45243459101766,None,None,,52.45243459101766,None,52.45243459101766,None,52.45243459101766,None,52.45243459101766,None,52.45243459101766,None,54.452128857024945,None,,,,,,,4,001,,,2020_Sep_07_1737,reactive_intentional_encoding_looped,3.2.4,60.10093736129692,
,,,,,,,,,,,,,,,images/mop.png,C,object ,25,indirect,,,,,,,,,,,,,,,,,,,,,,,,,,,,,,,,,,,,,,,,,,,,,,,,,,,,,,,,,,,,,,,,,,,,,,,,,,,,,,,,,0,24,24,24,,,,,,,,,,,,,,,,,,,,,,,,,,,,,,,,,,,,,,,,,,,,,,,,,,,,,,,,,,,,,,,54.969080855022185,None,None,,54.969080855022185,None,54.969080855022185,None,54.969080855022185,None,54.969080855022185,None,54.969080855022185,None,56.9682775750116,None,,,,,,,4,001,,,2020_Sep_07_1737,reactive_intentional_encoding_looped,3.2.4,60.10093736129692,
,,,,,,,,,,,,,,,images/golden_gate_bridge_b.jpg,B,scene,26,indirect,,,,,,,,,,,,,,,,,,,,,,,,,,,,,,,,,,,,,,,,,,,,,,,,,,,,,,,,,,,,,,,,,,,,,,,,,,,,,,,,,0,25,25,25,,,,,,,,,,,,,,,,,,,,,,,,,,,,,,,,,,,,,,,,,,,,,,,,,,,,,,,,,,,,,,,57.47698083901196,None,None,,57.47698083901196,None,57.47698083901196,None,57.47698083901196,None,57.47698083901196,None,57.47698083901196,None,59.47690489102388,None,,,,,,,4,001,,,2020_Sep_07_1737,reactive_intentional_encoding_looped,3.2.4,60.10093736129692,
,,,,,,,,,,,,,,,images/ozzy_osbourne_a.jpg,new,face,27,None,,,,,,,,,,,,,,,,,,,,,,,,,,,,,,,,,,,,,,,,,,,,,,,,,,,,,,,,,,,,,,,,,,,,,,,,,,,,,,,,,0,26,26,26,,,,,,,,,,,,,,,,,,,,,,,,,,,,,,,,,,,,,,,,,,,,,,,,,,,,,,,,,,,,,,,59.984798184013925,None,None,,59.984798184013925,None,59.984798184013925,None,59.984798184013925,None,59.984798184013925,None,59.984798184013925,None,61.98480860001291,None,,,,,,,4,001,,,2020_Sep_07_1737,reactive_intentional_encoding_looped,3.2.4,60.10093736129692,
,,,,,,,,,,,,,,,images/rollerblade.png,new,object ,28,None,,,,,,,,,,,,,,,,,,,,,,,,,,,,,,,,,,,,,,,,,,,,,,,,,,,,,,,,,,,,,,,,,,,,,,,,,,,,,,,,,0,27,27,27,,,,,,,,,,,,,,,,,,,,,,,,,,,,,,,,,,,,,,,,,,,,,,,,,,,,,,,,,,,,,,,62.50093044200912,None,None,,62.50093044200912,None,62.50093044200912,None,62.50093044200912,None,62.50093044200912,None,62.50093044200912,None,64.50174728501588,None,,,,,,,4,001,,,2020_Sep_07_1737,reactive_intentional_encoding_looped,3.2.4,60.10093736129692,
,,,,,,,,,,,,,,,images/motorcycle.png,C,object ,29,indirect,,,,,,,,,,,,,,,,,,,,,,,,,,,,,,,,,,,,,,,,,,,,,,,,,,,,,,,,,,,,,,,,,,,,,,,,,,,,,,,,,0,28,28,28,,,,,,,,,,,,,,,,,,,,,,,,,,,,,,,,,,,,,,,,,,,,,,,,,,,,,,,,,,,,,,,65.01278530701529,None,None,,65.01278530701529,None,65.01278530701529,None,65.01278530701529,None,65.01278530701529,None,65.01278530701529,None,67.02628490302595,None,,,,,,,4,001,,,2020_Sep_07_1737,reactive_intentional_encoding_looped,3.2.4,60.10093736129692,
,,,,,,,,,,,,,,,images/serengeti_c.jpg,B,scene,30,indirect,,,,,,,,,,,,,,,,,,,,,,,,,,,,,,,,,,,,,,,,,,,,,,,,,,,,,,,,,,,,,,,,,,,,,,,,,,,,,,,,,0,29,29,29,,,,,,,,,,,,,,,,,,,,,,,,,,,,,,,,,,,,,,,,,,,,,,,,,,,,,,,,,,,,,,,67.54213143701782,None,None,,67.54213143701782,None,67.54213143701782,None,67.54213143701782,None,67.54213143701782,None,67.54213143701782,None,69.54342868700041,None,,,,,,,4,001,,,2020_Sep_07_1737,reactive_intentional_encoding_looped,3.2.4,60.10093736129692,
,,,,,,,,,,,,,,,images/chest_toys.png,A,object ,31,None,,,,,,,,,,,,,,,,,,,,,,,,,,,,,,,,,,,,,,,,,,,,,,,,,,,,,,,,,,,,,,,,,,,,,,,,,,,,,,,,,0,30,30,30,,,,,,,,,,,,,,,,,,,,,,,,,,,,,,,,,,,,,,,,,,,,,,,,,,,,,,,,,,,,,,,70.05189581902232,None,None,,70.05189581902232,None,70.05189581902232,None,70.05189581902232,None,70.05189581902232,None,70.05189581902232,None,72.06003790200339,None,,,,,,,4,001,,,2020_Sep_07_1737,reactive_intentional_encoding_looped,3.2.4,60.10093736129692,
,,,,,,,,,,,,,,,images/razor.png,new,object ,32,None,,,,,,,,,,,,,,,,,,,,,,,,,,,,,,,,,,,,,,,,,,,,,,,,,,,,,,,,,,,,,,,,,,,,,,,,,,,,,,,,,0,31,31,31,,,,,,,,,,,,,,,,,,,,,,,,,,,,,,,,,,,,,,,,,,,,,,,,,,,,,,,,,,,,,,,72.567746257002,None,None,,72.567746257002,None,72.567746257002,None,72.567746257002,None,72.567746257002,None,72.567746257002,None,74.57595431801747,None,,,,,,,4,001,,,2020_Sep_07_1737,reactive_intentional_encoding_looped,3.2.4,60.10093736129692,
,,,,,,,,,,,,,,,images/st_basils_a.jpg,new,scene,33,None,,,,,,,,,,,,,,,,,,,,,,,,,,,,,,,,,,,,,,,,,,,,,,,,,,,,,,,,,,,,,,,,,,,,,,,,,,,,,,,,,0,32,32,32,,,,,,,,,,,,,,,,,,,,,,,,,,,,,,,,,,,,,,,,,,,,,,,,,,,,,,,,,,,,,,,75.09284754202235,None,None,,75.09284754202235,None,75.09284754202235,None,75.09284754202235,None,75.09284754202235,None,75.09284754202235,None,77.09287538501667,None,,,,,,,4,001,,,2020_Sep_07_1737,reactive_intentional_encoding_looped,3.2.4,60.10093736129692,
,,,,,,,,,,,,,,,images/balloon.jpg,A,object ,34,None,,,,,,,,,,,,,,,,,,,,,,,,,,,,,,,,,,,,,,,,,,,,,,,,,,,,,,,,,,,,,,,,,,,,,,,,,,,,,,,,,0,33,33,33,,,,,,,,,,,,,,,,,,,,,,,,,,,,,,,,,,,,,,,,,,,,,,,,,,,,,,,,,,,,,,,77.59965664500487,None,None,,77.59965664500487,None,77.59965664500487,None,77.59965664500487,None,77.59965664500487,None,77.59965664500487,None,79.60936984300497,None,,,,,,,4,001,,,2020_Sep_07_1737,reactive_intentional_encoding_looped,3.2.4,60.10093736129692,
,,,,,,,,,,,,,,,images/pentagon_a.jpg,new,scene,35,None,,,,,,,,,,,,,,,,,,,,,,,,,,,,,,,,,,,,,,,,,,,,,,,,,,,,,,,,,,,,,,,,,,,,,,,,,,,,,,,,,0,34,34,34,,,,,,,,,,,,,,,,,,,,,,,,,,,,,,,,,,,,,,,,,,,,,,,,,,,,,,,,,,,,,,,80.12638461502502,None,None,,80.12638461502502,None,80.12638461502502,None,80.12638461502502,None,80.12638461502502,None,80.12638461502502,None,82.12651109401486,None,,,,,,,4,001,,,2020_Sep_07_1737,reactive_intentional_encoding_looped,3.2.4,60.10093736129692,
,,,,,,,,,,,,,,,images/puppettheatre.png,new,object ,36,None,,,,,,,,,,,,,,,,,,,,,,,,,,,,,,,,,,,,,,,,,,,,,,,,,,,,,,,,,,,,,,,,,,,,,,,,,,,,,,,,,0,35,35,35,,,,,,,,,,,,,,,,,,,,,,,,,,,,,,,,,,,,,,,,,,,,,,,,,,,,,,,,,,,,,,,82.64257312801783,None,None,,82.64257312801783,None,82.64257312801783,None,82.64257312801783,None,82.64257312801783,None,82.64257312801783,None,84.64296518801711,None,,,,,,,4,001,,,2020_Sep_07_1737,reactive_intentional_encoding_looped,3.2.4,60.10093736129692,
,,,,,,,,,,,,,,,images/glasses_sun.png,A,object ,37,None,,,,,,,,,,,,,,,,,,,,,,,,,,,,,,,,,,,,,,,,,,,,,,,,,,,,,,,,,,,,,,,,,,,,,,,,,,,,,,,,,0,36,36,36,,,,,,,,,,,,,,,,,,,,,,,,,,,,,,,,,,,,,,,,,,,,,,,,,,,,,,,,,,,,,,,85.15012005201424,None,None,,85.15012005201424,None,85.15012005201424,None,85.15012005201424,None,85.15012005201424,None,85.15012005201424,None,87.15946159500163,None,,,,,,,4,001,,,2020_Sep_07_1737,reactive_intentional_encoding_looped,3.2.4,60.10093736129692,
,,,,,,,,,,,,,,,images/meg_ryan_b.jpg,new,face,38,None,,,,,,,,,,,,,,,,,,,,,,,,,,,,,,,,,,,,,,,,,,,,,,,,,,,,,,,,,,,,,,,,,,,,,,,,,,,,,,,,,0,37,37,37,,,,,,,,,,,,,,,,,,,,,,,,,,,,,,,,,,,,,,,,,,,,,,,,,,,,,,,,,,,,,,,87.67509747401346,None,None,,87.67509747401346,None,87.67509747401346,None,87.67509747401346,None,87.67509747401346,None,87.67509747401346,None,89.67601068899967,None,,,,,,,4,001,,,2020_Sep_07_1737,reactive_intentional_encoding_looped,3.2.4,60.10093736129692,
,,,,,,,,,,,,,,,images/origamiPaper.png,C,object ,39,direct,,,,,,,,,,,,,,,,,,,,,,,,,,,,,,,,,,,,,,,,,,,,,,,,,,,,,,,,,,,,,,,,,,,,,,,,,,,,,,,,,0,38,38,38,,,,,,,,,,,,,,,,,,,,,,,,,,,,,,,,,,,,,,,,,,,,,,,,,,,,,,,,,,,,,,,90.19218073200318,None,None,,90.19218073200318,None,90.19218073200318,None,90.19218073200318,None,90.19218073200318,None,90.19218073200318,None,92.19269832200371,None,,,,,,,4,001,,,2020_Sep_07_1737,reactive_intentional_encoding_looped,3.2.4,60.10093736129692,
,,,,,,,,,,,,,,,images/stonehenge_b.jpg,B,scene,40,direct,,,,,,,,,,,,,,,,,,,,,,,,,,,,,,,,,,,,,,,,,,,,,,,,,,,,,,,,,,,,,,,,,,,,,,,,,,,,,,,,,0,39,39,39,,,,,,,,,,,,,,,,,,,,,,,,,,,,,,,,,,,,,,,,,,,,,,,,,,,,,,,,,,,,,,,92.70947471202817,None,None,,92.70947471202817,None,92.70947471202817,None,92.70947471202817,None,92.70947471202817,None,92.70947471202817,None,94.70893326302757,None,,,,,,,4,001,,,2020_Sep_07_1737,reactive_intentional_encoding_looped,3.2.4,60.10093736129692,
,,,,,,,,,,,,,,,images/diving_board.jpg,A,object ,41,None,,,,,,,,,,,,,,,,,,,,,,,,,,,,,,,,,,,,,,,,,,,,,,,,,,,,,,,,,,,,,,,,,,,,,,,,,,,,,,,,,0,40,40,40,,,,,,,,,,,,,,,,,,,,,,,,,,,,,,,,,,,,,,,,,,,,,,,,,,,,,,,,,,,,,,,95.21809797201422,None,None,,95.21809797201422,None,95.21809797201422,None,95.21809797201422,None,95.21809797201422,None,95.21809797201422,None,97.2262046180258,None,,,,,,,4,001,,,2020_Sep_07_1737,reactive_intentional_encoding_looped,3.2.4,60.10093736129692,
,,,,,,,,,,,,,,,images/oven.png,C,object ,42,indirect,,,,,,,,,,,,,,,,,,,,,,,,,,,,,,,,,,,,,,,,,,,,,,,,,,,,,,,,,,,,,,,,,,,,,,,,,,,,,,,,,0,41,41,41,,,,,,,,,,,,,,,,,,,,,,,,,,,,,,,,,,,,,,,,,,,,,,,,,,,,,,,,,,,,,,,97.74274027900537,None,None,,97.74274027900537,None,97.74274027900537,None,97.74274027900537,None,97.74274027900537,None,97.74274027900537,None,99.74223612400237,None,,,,,,,4,001,,,2020_Sep_07_1737,reactive_intentional_encoding_looped,3.2.4,60.10093736129692,
,,,,,,,,,,,,,,,images/emma_stone.jpg,B,face,43,indirect,,,,,,,,,,,,,,,,,,,,,,,,,,,,,,,,,,,,,,,,,,,,,,,,,,,,,,,,,,,,,,,,,,,,,,,,,,,,,,,,,0,42,42,42,,,,,,,,,,,,,,,,,,,,,,,,,,,,,,,,,,,,,,,,,,,,,,,,,,,,,,,,,,,,,,,100.25345514601213,None,None,,100.25345514601213,None,100.25345514601213,None,100.25345514601213,None,100.25345514601213,None,100.25345514601213,None,102.25922380300472,None,,,,,,,4,001,,,2020_Sep_07_1737,reactive_intentional_encoding_looped,3.2.4,60.10093736129692,
,,,,,,,,,,,,,,,images/mel_gibson_c.jpg,new,face,44,None,,,,,,,,,,,,,,,,,,,,,,,,,,,,,,,,,,,,,,,,,,,,,,,,,,,,,,,,,,,,,,,,,,,,,,,,,,,,,,,,,0,43,43,43,,,,,,,,,,,,,,,,,,,,,,,,,,,,,,,,,,,,,,,,,,,,,,,,,,,,,,,,,,,,,,,102.76528895602678,None,None,,102.76528895602678,None,102.76528895602678,None,102.76528895602678,None,102.76528895602678,None,102.76528895602678,None,104.77606143802404,None,,,,,,,4,001,,,2020_Sep_07_1737,reactive_intentional_encoding_looped,3.2.4,60.10093736129692,
,,,,,,,,,,,,,,,images/white_house_a.jpg,new,scene,45,None,,,,,,,,,,,,,,,,,,,,,,,,,,,,,,,,,,,,,,,,,,,,,,,,,,,,,,,,,,,,,,,,,,,,,,,,,,,,,,,,,0,44,44,44,,,,,,,,,,,,,,,,,,,,,,,,,,,,,,,,,,,,,,,,,,,,,,,,,,,,,,,,,,,,,,,105.30884488602169,None,None,,105.30884488602169,None,105.30884488602169,None,105.30884488602169,None,105.30884488602169,None,105.30884488602169,None,107.3092866250081,None,,,,,,,4,001,,,2020_Sep_07_1737,reactive_intentional_encoding_looped,3.2.4,60.10093736129692,
,,,,,,,,,,,,,,,images/castle_sand.png,A,object ,46,None,,,,,,,,,,,,,,,,,,,,,,,,,,,,,,,,,,,,,,,,,,,,,,,,,,,,,,,,,,,,,,,,,,,,,,,,,,,,,,,,,0,45,45,45,,,,,,,,,,,,,,,,,,,,,,,,,,,,,,,,,,,,,,,,,,,,,,,,,,,,,,,,,,,,,,,107.81804551300593,None,None,,107.81804551300593,None,107.81804551300593,None,107.81804551300593,None,107.81804551300593,None,107.81804551300593,None,109.82519085102831,None,,,,,,,4,001,,,2020_Sep_07_1737,reactive_intentional_encoding_looped,3.2.4,60.10093736129692,
,,,,,,,,,,,,,,,images/pants.png,C,object ,47,direct,,,,,,,,,,,,,,,,,,,,,,,,,,,,,,,,,,,,,,,,,,,,,,,,,,,,,,,,,,,,,,,,,,,,,,,,,,,,,,,,,0,46,46,46,,,,,,,,,,,,,,,,,,,,,,,,,,,,,,,,,,,,,,,,,,,,,,,,,,,,,,,,,,,,,,,110.33418902702397,None,None,,110.33418902702397,None,110.33418902702397,None,110.33418902702397,None,110.33418902702397,None,110.33418902702397,None,112.34222983801737,None,,,,,,,4,001,,,2020_Sep_07_1737,reactive_intentional_encoding_looped,3.2.4,60.10093736129692,
,,,,,,,,,,,,,,,images/julia_roberts_c.jpg,B,face,48,direct,,,,,,,,,,,,,,,,,,,,,,,,,,,,,,,,,,,,,,,,,,,,,,,,,,,,,,,,,,,,,,,,,,,,,,,,,,,,,,,,,0,47,47,47,,,,,,,,,,,,,,,,,,,,,,,,,,,,,,,,,,,,,,,,,,,,,,,,,,,,,,,,,,,,,,,112.84963159801555,None,None,,112.84963159801555,None,112.84963159801555,None,112.84963159801555,None,112.84963159801555,None,112.84963159801555,None,114.85849766002502,None,,,,,,,4,001,,,2020_Sep_07_1737,reactive_intentional_encoding_looped,3.2.4,60.10093736129692,
,,,,,,,,,,,,,,,images/flipflopsBlue.png,A,object ,49,None,,,,,,,,,,,,,,,,,,,,,,,,,,,,,,,,,,,,,,,,,,,,,,,,,,,,,,,,,,,,,,,,,,,,,,,,,,,,,,,,,0,48,48,48,,,,,,,,,,,,,,,,,,,,,,,,,,,,,,,,,,,,,,,,,,,,,,,,,,,,,,,,,,,,,,,115.37582363400725,None,None,,115.37582363400725,None,115.37582363400725,None,115.37582363400725,None,115.37582363400725,None,115.37582363400725,None,117.37606536201201,None,,,,,,,4,001,,,2020_Sep_07_1737,reactive_intentional_encoding_looped,3.2.4,60.10093736129692,
,,,,,,,,,,,,,,,images/peppermill.png,C,object ,50,indirect,,,,,,,,,,,,,,,,,,,,,,,,,,,,,,,,,,,,,,,,,,,,,,,,,,,,,,,,,,,,,,,,,,,,,,,,,,,,,,,,,0,49,49,49,,,,,,,,,,,,,,,,,,,,,,,,,,,,,,,,,,,,,,,,,,,,,,,,,,,,,,,,,,,,,,,117.88230703401496,None,None,,117.88230703401496,None,117.88230703401496,None,117.88230703401496,None,117.88230703401496,None,117.88230703401496,None,119.8922416830028,None,,,,,,,4,001,,,2020_Sep_07_1737,reactive_intentional_encoding_looped,3.2.4,60.10093736129692,
,,,,,,,,,,,,,,,images/neuschwanstein_castle_c.jpg,B,scene,51,indirect,,,,,,,,,,,,,,,,,,,,,,,,,,,,,,,,,,,,,,,,,,,,,,,,,,,,,,,,,,,,,,,,,,,,,,,,,,,,,,,,,0,50,50,50,,,,,,,,,,,,,,,,,,,,,,,,,,,,,,,,,,,,,,,,,,,,,,,,,,,,,,,,,,,,,,,120.40943155900459,None,None,,120.40943155900459,None,120.40943155900459,None,120.40943155900459,None,120.40943155900459,None,120.40943155900459,None,122.40915026402217,None,,,,,,,4,001,,,2020_Sep_07_1737,reactive_intentional_encoding_looped,3.2.4,60.10093736129692,
,,,,,,,,,,,,,,,images/pen.png,C,object ,52,indirect,,,,,,,,,,,,,,,,,,,,,,,,,,,,,,,,,,,,,,,,,,,,,,,,,,,,,,,,,,,,,,,,,,,,,,,,,,,,,,,,,0,51,51,51,,,,,,,,,,,,,,,,,,,,,,,,,,,,,,,,,,,,,,,,,,,,,,,,,,,,,,,,,,,,,,,122.9250334520184,None,None,,122.9250334520184,None,122.9250334520184,None,122.9250334520184,None,122.9250334520184,None,122.9250334520184,None,124.92597096800455,None,,,,,,,4,001,,,2020_Sep_07_1737,reactive_intentional_encoding_looped,3.2.4,60.10093736129692,
,,,,,,,,,,,,,,,images/waikiki_c.jpg,B,scene,53,indirect,,,,,,,,,,,,,,,,,,,,,,,,,,,,,,,,,,,,,,,,,,,,,,,,,,,,,,,,,,,,,,,,,,,,,,,,,,,,,,,,,0,52,52,52,,,,,,,,,,,,,,,,,,,,,,,,,,,,,,,,,,,,,,,,,,,,,,,,,,,,,,,,,,,,,,,125.44207283100695,None,None,,125.44207283100695,None,125.44207283100695,None,125.44207283100695,None,125.44207283100695,None,125.44207283100695,None,127.4424667910207,None,,,,,,,4,001,,,2020_Sep_07_1737,reactive_intentional_encoding_looped,3.2.4,60.10093736129692,
,,,,,,,,,,,,,,,images/mug.png,C,object ,54,indirect,,,,,,,,,,,,,,,,,,,,,,,,,,,,,,,,,,,,,,,,,,,,,,,,,,,,,,,,,,,,,,,,,,,,,,,,,,,,,,,,,0,53,53,53,,,,,,,,,,,,,,,,,,,,,,,,,,,,,,,,,,,,,,,,,,,,,,,,,,,,,,,,,,,,,,,127.95869702502387,None,None,,127.95869702502387,None,127.95869702502387,None,127.95869702502387,None,127.95869702502387,None,127.95869702502387,None,129.9590038350143,None,,,,,,,4,001,,,2020_Sep_07_1737,reactive_intentional_encoding_looped,3.2.4,60.10093736129692,
,,,,,,,,,,,,,,,images/amy_poehler_c.jpg,B,face,55,indirect,,,,,,,,,,,,,,,,,,,,,,,,,,,,,,,,,,,,,,,,,,,,,,,,,,,,,,,,,,,,,,,,,,,,,,,,,,,,,,,,,0,54,54,54,,,,,,,,,,,,,,,,,,,,,,,,,,,,,,,,,,,,,,,,,,,,,,,,,,,,,,,,,,,,,,,130.46496071500587,None,None,,130.46496071500587,None,130.46496071500587,None,130.46496071500587,None,130.46496071500587,None,130.46496071500587,None,132.47421867001685,None,,,,,,,4,001,,,2020_Sep_07_1737,reactive_intentional_encoding_looped,3.2.4,60.10093736129692,
,,,,,,,,,,,,,,,images/cleaningGloves.png,new,object ,56,None,,,,,,,,,,,,,,,,,,,,,,,,,,,,,,,,,,,,,,,,,,,,,,,,,,,,,,,,,,,,,,,,,,,,,,,,,,,,,,,,,0,55,55,55,,,,,,,,,,,,,,,,,,,,,,,,,,,,,,,,,,,,,,,,,,,,,,,,,,,,,,,,,,,,,,,132.99196144301095,None,None,,132.99196144301095,None,132.99196144301095,None,132.99196144301095,None,132.99196144301095,None,132.99196144301095,None,134.99227108299965,None,,,,,,,4,001,,,2020_Sep_07_1737,reactive_intentional_encoding_looped,3.2.4,60.10093736129692,
,,,,,,,,,,,,,,,images/paddle_bread.png,C,object ,57,direct,,,,,,,,,,,,,,,,,,,,,,,,,,,,,,,,,,,,,,,,,,,,,,,,,,,,,,,,,,,,,,,,,,,,,,,,,,,,,,,,,0,56,56,56,,,,,,,,,,,,,,,,,,,,,,,,,,,,,,,,,,,,,,,,,,,,,,,,,,,,,,,,,,,,,,,135.50895210902672,None,None,,135.50895210902672,None,135.50895210902672,None,135.50895210902672,None,135.50895210902672,None,135.50895210902672,None,137.50843847900978,None,,,,,,,4,001,,,2020_Sep_07_1737,reactive_intentional_encoding_looped,3.2.4,60.10093736129692,
,,,,,,,,,,,,,,,images/gaudi_cathedral_c.jpg,B,scene,58,direct,,,,,,,,,,,,,,,,,,,,,,,,,,,,,,,,,,,,,,,,,,,,,,,,,,,,,,,,,,,,,,,,,,,,,,,,,,,,,,,,,0,57,57,57,,,,,,,,,,,,,,,,,,,,,,,,,,,,,,,,,,,,,,,,,,,,,,,,,,,,,,,,,,,,,,,138.02463273401372,None,None,,138.02463273401372,None,138.02463273401372,None,138.02463273401372,None,138.02463273401372,None,138.02463273401372,None,140.02582941501169,None,,,,,,,4,001,,,2020_Sep_07_1737,reactive_intentional_encoding_looped,3.2.4,60.10093736129692,
,,,,,,,,,,,,,,,images/notebook_black.png,C,object ,59,indirect,,,,,,,,,,,,,,,,,,,,,,,,,,,,,,,,,,,,,,,,,,,,,,,,,,,,,,,,,,,,,,,,,,,,,,,,,,,,,,,,,0,58,58,58,,,,,,,,,,,,,,,,,,,,,,,,,,,,,,,,,,,,,,,,,,,,,,,,,,,,,,,,,,,,,,,140.54235826001968,None,None,,140.54235826001968,None,140.54235826001968,None,140.54235826001968,None,140.54235826001968,None,140.54235826001968,None,142.5424004640081,None,,,,,,,4,001,,,2020_Sep_07_1737,reactive_intentional_encoding_looped,3.2.4,60.10093736129692,
,,,,,,,,,,,,,,,images/forbidden_city_c.jpg,B,scene,60,indirect,,,,,,,,,,,,,,,,,,,,,,,,,,,,,,,,,,,,,,,,,,,,,,,,,,,,,,,,,,,,,,,,,,,,,,,,,,,,,,,,,0,59,59,59,,,,,,,,,,,,,,,,,,,,,,,,,,,,,,,,,,,,,,,,,,,,,,,,,,,,,,,,,,,,,,,143.05749041502713,None,None,,143.05749041502713,None,143.05749041502713,None,143.05749041502713,None,143.05749041502713,None,143.05749041502713,None,145.05884053002228,None,,,,,,,4,001,,,2020_Sep_07_1737,reactive_intentional_encoding_looped,3.2.4,60.10093736129692,
,,,,,,,,,,,,,,,images/boat_sail.png,A,object ,61,None,,,,,,,,,,,,,,,,,,,,,,,,,,,,,,,,,,,,,,,,,,,,,,,,,,,,,,,,,,,,,,,,,,,,,,,,,,,,,,,,,0,60,60,60,,,,,,,,,,,,,,,,,,,,,,,,,,,,,,,,,,,,,,,,,,,,,,,,,,,,,,,,,,,,,,,145.57456612802343,None,None,,145.57456612802343,None,145.57456612802343,None,145.57456612802343,None,145.57456612802343,None,145.57456612802343,None,147.57548048201716,None,,,,,,,4,001,,,2020_Sep_07_1737,reactive_intentional_encoding_looped,3.2.4,60.10093736129692,
,,,,,,,,,,,,,,,images/mike_myers_c.jpg,new,face,62,None,,,,,,,,,,,,,,,,,,,,,,,,,,,,,,,,,,,,,,,,,,,,,,,,,,,,,,,,,,,,,,,,,,,,,,,,,,,,,,,,,0,61,61,61,,,,,,,,,,,,,,,,,,,,,,,,,,,,,,,,,,,,,,,,,,,,,,,,,,,,,,,,,,,,,,,148.09225113800494,None,None,,148.09225113800494,None,148.09225113800494,None,148.09225113800494,None,148.09225113800494,None,148.09225113800494,None,150.0922734250198,None,,,,,,,4,001,,,2020_Sep_07_1737,reactive_intentional_encoding_looped,3.2.4,60.10093736129692,
,,,,,,,,,,,,,,,images/flashlight.png,A,object ,63,None,,,,,,,,,,,,,,,,,,,,,,,,,,,,,,,,,,,,,,,,,,,,,,,,,,,,,,,,,,,,,,,,,,,,,,,,,,,,,,,,,0,62,62,62,,,,,,,,,,,,,,,,,,,,,,,,,,,,,,,,,,,,,,,,,,,,,,,,,,,,,,,,,,,,,,,150.6087451930216,None,None,,150.6087451930216,None,150.6087451930216,None,150.6087451930216,None,150.6087451930216,None,150.6087451930216,None,152.60805665201042,None,,,,,,,4,001,,,2020_Sep_07_1737,reactive_intentional_encoding_looped,3.2.4,60.10093736129692,
,,,,,,,,,,,,,,,images/match.png,C,object ,64,direct,,,,,,,,,,,,,,,,,,,,,,,,,,,,,,,,,,,,,,,,,,,,,,,,,,,,,,,,,,,,,,,,,,,,,,,,,,,,,,,,,0,63,63,63,,,,,,,,,,,,,,,,,,,,,,,,,,,,,,,,,,,,,,,,,,,,,,,,,,,,,,,,,,,,,,,153.11111488202005,None,None,,153.11111488202005,None,153.11111488202005,None,153.11111488202005,None,153.11111488202005,None,153.11111488202005,None,155.1241186390107,None,,,,,,,4,001,,,2020_Sep_07_1737,reactive_intentional_encoding_looped,3.2.4,60.10093736129692,
,,,,,,,,,,,,,,,images/grand_canyon_c.jpg,B,scene,65,direct,,,,,,,,,,,,,,,,,,,,,,,,,,,,,,,,,,,,,,,,,,,,,,,,,,,,,,,,,,,,,,,,,,,,,,,,,,,,,,,,,0,64,64,64,,,,,,,,,,,,,,,,,,,,,,,,,,,,,,,,,,,,,,,,,,,,,,,,,,,,,,,,,,,,,,,155.64136291100294,None,None,,155.64136291100294,None,155.64136291100294,None,155.64136291100294,None,155.64136291100294,None,155.64136291100294,None,157.64120155500132,None,,,,,,,4,001,,,2020_Sep_07_1737,reactive_intentional_encoding_looped,3.2.4,60.10093736129692,
,,,,,,,,,,,,,,,images/scooter.png,A,object ,66,None,,,,,,,,,,,,,,,,,,,,,,,,,,,,,,,,,,,,,,,,,,,,,,,,,,,,,,,,,,,,,,,,,,,,,,,,,,,,,,,,,0,65,65,65,,,,,,,,,,,,,,,,,,,,,,,,,,,,,,,,,,,,,,,,,,,,,,,,,,,,,,,,,,,,,,,158.1577890110202,None,None,,158.1577890110202,None,158.1577890110202,None,158.1577890110202,None,158.1577890110202,None,158.1577890110202,None,160.1573626419995,None,,,,,,,4,001,,,2020_Sep_07_1737,reactive_intentional_encoding_looped,3.2.4,60.10093736129692,
,,,,,,,,,,,,,,,images/paddle ball.jpg,C,object ,67,direct,,,,,,,,,,,,,,,,,,,,,,,,,,,,,,,,,,,,,,,,,,,,,,,,,,,,,,,,,,,,,,,,,,,,,,,,,,,,,,,,,0,66,66,66,,,,,,,,,,,,,,,,,,,,,,,,,,,,,,,,,,,,,,,,,,,,,,,,,,,,,,,,,,,,,,,160.6747775710246,None,None,,160.6747775710246,None,160.6747775710246,None,160.6747775710246,None,160.6747775710246,None,160.6747775710246,None,162.67562033500872,None,,,,,,,4,001,,,2020_Sep_07_1737,reactive_intentional_encoding_looped,3.2.4,60.10093736129692,
,,,,,,,,,,,,,,,images/joshua_tree_c.jpg,B,scene,68,direct,,,,,,,,,,,,,,,,,,,,,,,,,,,,,,,,,,,,,,,,,,,,,,,,,,,,,,,,,,,,,,,,,,,,,,,,,,,,,,,,,0,67,67,67,,,,,,,,,,,,,,,,,,,,,,,,,,,,,,,,,,,,,,,,,,,,,,,,,,,,,,,,,,,,,,,163.20777426101267,None,None,,163.20777426101267,None,163.20777426101267,None,163.20777426101267,None,163.20777426101267,None,163.20777426101267,None,165.2071780800179,None,,,,,,,4,001,,,2020_Sep_07_1737,reactive_intentional_encoding_looped,3.2.4,60.10093736129692,
,,,,,,,,,,,,,,,images/gametable_airhockey.png,A,object ,69,None,,,,,,,,,,,,,,,,,,,,,,,,,,,,,,,,,,,,,,,,,,,,,,,,,,,,,,,,,,,,,,,,,,,,,,,,,,,,,,,,,0,68,68,68,,,,,,,,,,,,,,,,,,,,,,,,,,,,,,,,,,,,,,,,,,,,,,,,,,,,,,,,,,,,,,,165.72369483701186,None,None,,165.72369483701186,None,165.72369483701186,None,165.72369483701186,None,165.72369483701186,None,165.72369483701186,None,167.72562761002337,None,,,,,,,4,001,,,2020_Sep_07_1737,reactive_intentional_encoding_looped,3.2.4,60.10093736129692,
,,,,,,,,,,,,,,,images/guitar_electric.png,A,object ,70,None,,,,,,,,,,,,,,,,,,,,,,,,,,,,,,,,,,,,,,,,,,,,,,,,,,,,,,,,,,,,,,,,,,,,,,,,,,,,,,,,,0,69,69,69,,,,,,,,,,,,,,,,,,,,,,,,,,,,,,,,,,,,,,,,,,,,,,,,,,,,,,,,,,,,,,,168.24007607600652,None,None,,168.24007607600652,None,168.24007607600652,None,168.24007607600652,None,168.24007607600652,None,168.24007607600652,None,170.2412730830256,None,,,,,,,4,001,,,2020_Sep_07_1737,reactive_intentional_encoding_looped,3.2.4,60.10093736129692,
,,,,,,,,,,,,,,,images/chain_rusty.png,A,object ,71,None,,,,,,,,,,,,,,,,,,,,,,,,,,,,,,,,,,,,,,,,,,,,,,,,,,,,,,,,,,,,,,,,,,,,,,,,,,,,,,,,,0,70,70,70,,,,,,,,,,,,,,,,,,,,,,,,,,,,,,,,,,,,,,,,,,,,,,,,,,,,,,,,,,,,,,,170.75698085399927,None,None,,170.75698085399927,None,170.75698085399927,None,170.75698085399927,None,170.75698085399927,None,170.75698085399927,None,172.75829227801296,None,,,,,,,4,001,,,2020_Sep_07_1737,reactive_intentional_encoding_looped,3.2.4,60.10093736129692,
,,,,,,,,,,,,,,,images/fan.png,A,object ,72,None,,,,,,,,,,,,,,,,,,,,,,,,,,,,,,,,,,,,,,,,,,,,,,,,,,,,,,,,,,,,,,,,,,,,,,,,,,,,,,,,,0,71,71,71,,,,,,,,,,,,,,,,,,,,,,,,,,,,,,,,,,,,,,,,,,,,,,,,,,,,,,,,,,,,,,,173.27280756202526,None,None,,173.27280756202526,None,173.27280756202526,None,173.27280756202526,None,173.27280756202526,None,173.27280756202526,None,175.27395490801428,None,,,,,,,4,001,,,2020_Sep_07_1737,reactive_intentional_encoding_looped,3.2.4,60.10093736129692,
,,,,,,,,,,,,,,,images/drum.png,A,object ,73,None,,,,,,,,,,,,,,,,,,,,,,,,,,,,,,,,,,,,,,,,,,,,,,,,,,,,,,,,,,,,,,,,,,,,,,,,,,,,,,,,,0,72,72,72,,,,,,,,,,,,,,,,,,,,,,,,,,,,,,,,,,,,,,,,,,,,,,,,,,,,,,,,,,,,,,,176.00716364802793,None,None,,176.00716364802793,None,176.00716364802793,None,176.00716364802793,None,176.00716364802793,None,176.00716364802793,None,178.00778002501465,None,,,,,,,4,001,,,2020_Sep_07_1737,reactive_intentional_encoding_looped,3.2.4,60.10093736129692,
,,,,,,,,,,,,,,,images/mask_black.jpg,C,object ,74,indirect,,,,,,,,,,,,,,,,,,,,,,,,,,,,,,,,,,,,,,,,,,,,,,,,,,,,,,,,,,,,,,,,,,,,,,,,,,,,,,,,,0,73,73,73,,,,,,,,,,,,,,,,,,,,,,,,,,,,,,,,,,,,,,,,,,,,,,,,,,,,,,,,,,,,,,,178.53810270002577,None,None,,178.53810270002577,None,178.53810270002577,None,178.53810270002577,None,178.53810270002577,None,178.53810270002577,None,180.54078357401886,None,,,,,,,4,001,,,2020_Sep_07_1737,reactive_intentional_encoding_looped,3.2.4,60.10093736129692,
,,,,,,,,,,,,,,,images/drew_barrymore_c.jpg,B,face,75,indirect,,,,,,,,,,,,,,,,,,,,,,,,,,,,,,,,,,,,,,,,,,,,,,,,,,,,,,,,,,,,,,,,,,,,,,,,,,,,,,,,,0,74,74,74,,,,,,,,,,,,,,,,,,,,,,,,,,,,,,,,,,,,,,,,,,,,,,,,,,,,,,,,,,,,,,,181.05581819900544,None,None,,181.05581819900544,None,181.05581819900544,None,181.05581819900544,None,181.05581819900544,None,181.05581819900544,None,183.05719291500282,None,,,,,,,4,001,,,2020_Sep_07_1737,reactive_intentional_encoding_looped,3.2.4,60.10093736129692,
,,,,,,,,,,,,,,,images/milk_shake.jpg,C,object ,76,direct,,,,,,,,,,,,,,,,,,,,,,,,,,,,,,,,,,,,,,,,,,,,,,,,,,,,,,,,,,,,,,,,,,,,,,,,,,,,,,,,,0,75,75,75,,,,,,,,,,,,,,,,,,,,,,,,,,,,,,,,,,,,,,,,,,,,,,,,,,,,,,,,,,,,,,,183.57193140601157,None,None,,183.57193140601157,None,183.57193140601157,None,183.57193140601157,None,183.57193140601157,None,183.57193140601157,None,185.57463210300193,None,,,,,,,4,001,,,2020_Sep_07_1737,reactive_intentional_encoding_looped,3.2.4,60.10093736129692,
,,,,,,,,,,,,,,,images/iguazu_falls_b.jpg,B,scene,77,direct,,,,,,,,,,,,,,,,,,,,,,,,,,,,,,,,,,,,,,,,,,,,,,,,,,,,,,,,,,,,,,,,,,,,,,,,,,,,,,,,,0,76,76,76,,,,,,,,,,,,,,,,,,,,,,,,,,,,,,,,,,,,,,,,,,,,,,,,,,,,,,,,,,,,,,,186.08791499200743,None,None,,186.08791499200743,None,186.08791499200743,None,186.08791499200743,None,186.08791499200743,None,186.08791499200743,None,188.0915642210166,None,,,,,,,4,001,,,2020_Sep_07_1737,reactive_intentional_encoding_looped,3.2.4,60.10093736129692,
,,,,,,,,,,,,,,,images/megaphone.png,C,object ,78,indirect,,,,,,,,,,,,,,,,,,,,,,,,,,,,,,,,,,,,,,,,,,,,,,,,,,,,,,,,,,,,,,,,,,,,,,,,,,,,,,,,,0,77,77,77,,,,,,,,,,,,,,,,,,,,,,,,,,,,,,,,,,,,,,,,,,,,,,,,,,,,,,,,,,,,,,,188.60402984300163,None,None,,188.60402984300163,None,188.60402984300163,None,188.60402984300163,None,188.60402984300163,None,188.60402984300163,None,190.60860569300712,None,,,,,,,4,001,,,2020_Sep_07_1737,reactive_intentional_encoding_looped,3.2.4,60.10093736129692,
,,,,,,,,,,,,,,,images/mark_zuckerberg_c.jpg,B,face,79,indirect,,,,,,,,,,,,,,,,,,,,,,,,,,,,,,,,,,,,,,,,,,,,,,,,,,,,,,,,,,,,,,,,,,,,,,,,,,,,,,,,,0,78,78,78,,,,,,,,,,,,,,,,,,,,,,,,,,,,,,,,,,,,,,,,,,,,,,,,,,,,,,,,,,,,,,,191.1208315300173,None,None,,191.1208315300173,None,191.1208315300173,None,191.1208315300173,None,191.1208315300173,None,191.1208315300173,None,193.12457807001192,None,,,,,,,4,001,,,2020_Sep_07_1737,reactive_intentional_encoding_looped,3.2.4,60.10093736129692,
,,,,,,,,,,,,,,,images/coin.jpg,new,object ,80,None,,,,,,,,,,,,,,,,,,,,,,,,,,,,,,,,,,,,,,,,,,,,,,,,,,,,,,,,,,,,,,,,,,,,,,,,,,,,,,,,,0,79,79,79,,,,,,,,,,,,,,,,,,,,,,,,,,,,,,,,,,,,,,,,,,,,,,,,,,,,,,,,,,,,,,,193.63629272801336,None,None,,193.63629272801336,None,193.63629272801336,None,193.63629272801336,None,193.63629272801336,None,193.63629272801336,None,195.63712769100675,None,,,,,,,4,001,,,2020_Sep_07_1737,reactive_intentional_encoding_looped,3.2.4,60.10093736129692,
,,,,,,,,,,,,,,,images/toyTrain.png,C,object ,81,indirect,,,,,,,,,,,,,,,,,,,,,,,,,,,,,,,,,,,,,,,,,,,,,,,,,,,,,,,,,,,,,,,,,,,,,,,,,,,,,,,,,0,80,80,80,,,,,,,,,,,,,,,,,,,,,,,,,,,,,,,,,,,,,,,,,,,,,,,,,,,,,,,,,,,,,,,196.154036714026,None,None,,196.154036714026,None,196.154036714026,None,196.154036714026,None,196.154036714026,None,196.154036714026,None,198.16917956600082,None,,,,,,,4,001,,,2020_Sep_07_1737,reactive_intentional_encoding_looped,3.2.4,60.10093736129692,
,,,,,,,,,,,,,,,images/bill_gates_a.jpg,B,face,82,indirect,,,,,,,,,,,,,,,,,,,,,,,,,,,,,,,,,,,,,,,,,,,,,,,,,,,,,,,,,,,,,,,,,,,,,,,,,,,,,,,,,0,81,81,81,,,,,,,,,,,,,,,,,,,,,,,,,,,,,,,,,,,,,,,,,,,,,,,,,,,,,,,,,,,,,,,198.67623878200538,None,None,,198.67623878200538,None,198.67623878200538,None,198.67623878200538,None,198.67623878200538,None,198.67623878200538,None,200.67569611300132,None,,,,,,,4,001,,,2020_Sep_07_1737,reactive_intentional_encoding_looped,3.2.4,60.10093736129692,
,,,,,,,,,,,,,,,images/portapotty.png,A,object ,83,None,,,,,,,,,,,,,,,,,,,,,,,,,,,,,,,,,,,,,,,,,,,,,,,,,,,,,,,,,,,,,,,,,,,,,,,,,,,,,,,,,0,82,82,82,,,,,,,,,,,,,,,,,,,,,,,,,,,,,,,,,,,,,,,,,,,,,,,,,,,,,,,,,,,,,,,201.18744109000545,None,None,,201.18744109000545,None,201.18744109000545,None,201.18744109000545,None,201.18744109000545,None,201.18744109000545,None,203.1859349400038,None,,,,,,,4,001,,,2020_Sep_07_1737,reactive_intentional_encoding_looped,3.2.4,60.10093736129692,
,,,,,,,,,,,,,,,images/shoe_pumps.jpg,A,object ,84,None,,,,,,,,,,,,,,,,,,,,,,,,,,,,,,,,,,,,,,,,,,,,,,,,,,,,,,,,,,,,,,,,,,,,,,,,,,,,,,,,,0,83,83,83,,,,,,,,,,,,,,,,,,,,,,,,,,,,,,,,,,,,,,,,,,,,,,,,,,,,,,,,,,,,,,,203.70308821901563,None,None,,203.70308821901563,None,203.70308821901563,None,203.70308821901563,None,203.70308821901563,None,203.70308821901563,None,205.70184103600332,None,,,,,,,4,001,,,2020_Sep_07_1737,reactive_intentional_encoding_looped,3.2.4,60.10093736129692,
,,,,,,,,,,,,,,,images/ribbon.jpg,new,object ,85,None,,,,,,,,,,,,,,,,,,,,,,,,,,,,,,,,,,,,,,,,,,,,,,,,,,,,,,,,,,,,,,,,,,,,,,,,,,,,,,,,,0,84,84,84,,,,,,,,,,,,,,,,,,,,,,,,,,,,,,,,,,,,,,,,,,,,,,,,,,,,,,,,,,,,,,,206.21893651300343,None,None,,206.21893651300343,None,206.21893651300343,None,206.21893651300343,None,206.21893651300343,None,206.21893651300343,None,208.21917534101522,None,,,,,,,4,001,,,2020_Sep_07_1737,reactive_intentional_encoding_looped,3.2.4,60.10093736129692,
,,,,,,,,,,,,,,,images/ring_diamond.png,A,object ,86,None,,,,,,,,,,,,,,,,,,,,,,,,,,,,,,,,,,,,,,,,,,,,,,,,,,,,,,,,,,,,,,,,,,,,,,,,,,,,,,,,,0,85,85,85,,,,,,,,,,,,,,,,,,,,,,,,,,,,,,,,,,,,,,,,,,,,,,,,,,,,,,,,,,,,,,,208.7256021160283,None,None,,208.7256021160283,None,208.7256021160283,None,208.7256021160283,None,208.7256021160283,None,208.7256021160283,None,210.74113530901377,None,,,,,,,4,001,,,2020_Sep_07_1737,reactive_intentional_encoding_looped,3.2.4,60.10093736129692,
,,,,,,,,,,,,,,,images/teddybear_brown.jpg,C,object ,87,direct,,,,,,,,,,,,,,,,,,,,,,,,,,,,,,,,,,,,,,,,,,,,,,,,,,,,,,,,,,,,,,,,,,,,,,,,,,,,,,,,,0,86,86,86,,,,,,,,,,,,,,,,,,,,,,,,,,,,,,,,,,,,,,,,,,,,,,,,,,,,,,,,,,,,,,,211.2551928560133,None,None,,211.2551928560133,None,211.2551928560133,None,211.2551928560133,None,211.2551928560133,None,211.2551928560133,None,213.2681795930257,None,,,,,,,4,001,,,2020_Sep_07_1737,reactive_intentional_encoding_looped,3.2.4,60.10093736129692,
,,,,,,,,,,,,,,,images/cn_tower_b.jpg,B,scene,88,direct,,,,,,,,,,,,,,,,,,,,,,,,,,,,,,,,,,,,,,,,,,,,,,,,,,,,,,,,,,,,,,,,,,,,,,,,,,,,,,,,,0,87,87,87,,,,,,,,,,,,,,,,,,,,,,,,,,,,,,,,,,,,,,,,,,,,,,,,,,,,,,,,,,,,,,,213.77765108601307,None,None,,213.77765108601307,None,213.77765108601307,None,213.77765108601307,None,213.77765108601307,None,213.77765108601307,None,215.7914244000276,None,,,,,,,4,001,,,2020_Sep_07_1737,reactive_intentional_encoding_looped,3.2.4,60.10093736129692,
,,,,,,,,,,,,,,,images/ball_baseball.png,A,object ,89,None,,,,,,,,,,,,,,,,,,,,,,,,,,,,,,,,,,,,,,,,,,,,,,,,,,,,,,,,,,,,,,,,,,,,,,,,,,,,,,,,,0,88,88,88,,,,,,,,,,,,,,,,,,,,,,,,,,,,,,,,,,,,,,,,,,,,,,,,,,,,,,,,,,,,,,,216.30109115701634,None,None,,216.30109115701634,None,216.30109115701634,None,216.30109115701634,None,216.30109115701634,None,216.30109115701634,None,218.30105019302573,None,,,,,,,4,001,,,2020_Sep_07_1737,reactive_intentional_encoding_looped,3.2.4,60.10093736129692,
,,,,,,,,,,,,,,,images/skirt.jpg,A,object ,90,None,,,,,,,,,,,,,,,,,,,,,,,,,,,,,,,,,,,,,,,,,,,,,,,,,,,,,,,,,,,,,,,,,,,,,,,,,,,,,,,,,0,89,89,89,,,,,,,,,,,,,,,,,,,,,,,,,,,,,,,,,,,,,,,,,,,,,,,,,,,,,,,,,,,,,,,218.81133360002423,None,None,,218.81133360002423,None,218.81133360002423,None,218.81133360002423,None,218.81133360002423,None,218.81133360002423,None,220.8246502490074,None,,,,,,,4,001,,,2020_Sep_07_1737,reactive_intentional_encoding_looped,3.2.4,60.10093736129692,
,,,,,,,,,,,,,,,images/firehydrant.png,A,object ,91,None,,,,,,,,,,,,,,,,,,,,,,,,,,,,,,,,,,,,,,,,,,,,,,,,,,,,,,,,,,,,,,,,,,,,,,,,,,,,,,,,,0,90,90,90,,,,,,,,,,,,,,,,,,,,,,,,,,,,,,,,,,,,,,,,,,,,,,,,,,,,,,,,,,,,,,,221.33882459401502,None,None,,221.33882459401502,None,221.33882459401502,None,221.33882459401502,None,221.33882459401502,None,221.33882459401502,None,223.35005083901342,None,,,,,,,4,001,,,2020_Sep_07_1737,reactive_intentional_encoding_looped,3.2.4,60.10093736129692,
,,,,,,,,,,,,,,,images/pacifier.png,C,object ,92,direct,,,,,,,,,,,,,,,,,,,,,,,,,,,,,,,,,,,,,,,,,,,,,,,,,,,,,,,,,,,,,,,,,,,,,,,,,,,,,,,,,0,91,91,91,,,,,,,,,,,,,,,,,,,,,,,,,,,,,,,,,,,,,,,,,,,,,,,,,,,,,,,,,,,,,,,223.85733074502787,None,None,,223.85733074502787,None,223.85733074502787,None,223.85733074502787,None,223.85733074502787,None,223.85733074502787,None,225.85763452001265,None,,,,,,,4,001,,,2020_Sep_07_1737,reactive_intentional_encoding_looped,3.2.4,60.10093736129692,
,,,,,,,,,,,,,,,images/michelle_obama_a.jpg,B,face,93,direct,,,,,,,,,,,,,,,,,,,,,,,,,,,,,,,,,,,,,,,,,,,,,,,,,,,,,,,,,,,,,,,,,,,,,,,,,,,,,,,,,0,92,92,92,,,,,,,,,,,,,,,,,,,,,,,,,,,,,,,,,,,,,,,,,,,,,,,,,,,,,,,,,,,,,,,226.36666712901206,None,None,,226.36666712901206,None,226.36666712901206,None,226.36666712901206,None,226.36666712901206,None,226.36666712901206,None,228.36616421301733,None,,,,,,,4,001,,,2020_Sep_07_1737,reactive_intentional_encoding_looped,3.2.4,60.10093736129692,
,,,,,,,,,,,,,,,images/drill.jpg,A,object ,94,None,,,,,,,,,,,,,,,,,,,,,,,,,,,,,,,,,,,,,,,,,,,,,,,,,,,,,,,,,,,,,,,,,,,,,,,,,,,,,,,,,0,93,93,93,,,,,,,,,,,,,,,,,,,,,,,,,,,,,,,,,,,,,,,,,,,,,,,,,,,,,,,,,,,,,,,228.8827073550201,None,None,,228.8827073550201,None,228.8827073550201,None,228.8827073550201,None,228.8827073550201,None,228.8827073550201,None,230.8836050980026,None,,,,,,,4,001,,,2020_Sep_07_1737,reactive_intentional_encoding_looped,3.2.4,60.10093736129692,
,,,,,,,,,,,,,,,images/orlando_bloom_b.jpg,new,face,95,None,,,,,,,,,,,,,,,,,,,,,,,,,,,,,,,,,,,,,,,,,,,,,,,,,,,,,,,,,,,,,,,,,,,,,,,,,,,,,,,,,0,94,94,94,,,,,,,,,,,,,,,,,,,,,,,,,,,,,,,,,,,,,,,,,,,,,,,,,,,,,,,,,,,,,,,231.3909187540121,None,None,,231.3909187540121,None,231.3909187540121,None,231.3909187540121,None,231.3909187540121,None,231.3909187540121,None,233.39117175902356,None,,,,,,,4,001,,,2020_Sep_07_1737,reactive_intentional_encoding_looped,3.2.4,60.10093736129692,
,,,,,,,,,,,,,,,images/bandage.jpg,A,object ,96,None,,,,,,,,,,,,,,,,,,,,,,,,,,,,,,,,,,,,,,,,,,,,,,,,,,,,,,,,,,,,,,,,,,,,,,,,,,,,,,,,,0,95,95,95,,,,,,,,,,,,,,,,,,,,,,,,,,,,,,,,,,,,,,,,,,,,,,,,,,,,,,,,,,,,,,,233.90413589501986,None,None,,233.90413589501986,None,233.90413589501986,None,233.90413589501986,None,233.90413589501986,None,233.90413589501986,None,235.91536103602266,None,,,,,,,4,001,,,2020_Sep_07_1737,reactive_intentional_encoding_looped,3.2.4,60.10093736129692,
,,,,,,,,,,,,,,,images/waterloo_belgium.jpg,new,scene,97,None,,,,,,,,,,,,,,,,,,,,,,,,,,,,,,,,,,,,,,,,,,,,,,,,,,,,,,,,,,,,,,,,,,,,,,,,,,,,,,,,,0,96,96,96,,,,,,,,,,,,,,,,,,,,,,,,,,,,,,,,,,,,,,,,,,,,,,,,,,,,,,,,,,,,,,,236.4324419320037,None,None,,236.4324419320037,None,236.4324419320037,None,236.4324419320037,None,236.4324419320037,None,236.4324419320037,None,238.4408158660226,None,,,,,,,4,001,,,2020_Sep_07_1737,reactive_intentional_encoding_looped,3.2.4,60.10093736129692,
,,,,,,,,,,,,,,,images/bib.png,A,object ,98,None,,,,,,,,,,,,,,,,,,,,,,,,,,,,,,,,,,,,,,,,,,,,,,,,,,,,,,,,,,,,,,,,,,,,,,,,,,,,,,,,,0,97,97,97,,,,,,,,,,,,,,,,,,,,,,,,,,,,,,,,,,,,,,,,,,,,,,,,,,,,,,,,,,,,,,,238.95743902702816,None,None,,238.95743902702816,None,238.95743902702816,None,238.95743902702816,None,238.95743902702816,None,238.95743902702816,None,240.95703103300184,None,,,,,,,4,001,,,2020_Sep_07_1737,reactive_intentional_encoding_looped,3.2.4,60.10093736129692,
,,,,,,,,,,,,,,,images/gateway_brch_b.jpg,new,scene,99,None,,,,,,,,,,,,,,,,,,,,,,,,,,,,,,,,,,,,,,,,,,,,,,,,,,,,,,,,,,,,,,,,,,,,,,,,,,,,,,,,,0,98,98,98,,,,,,,,,,,,,,,,,,,,,,,,,,,,,,,,,,,,,,,,,,,,,,,,,,,,,,,,,,,,,,,241.46971229600604,None,None,,241.46971229600604,None,241.46971229600604,None,241.46971229600604,None,241.46971229600604,None,241.46971229600604,None,243.47321881802054,None,,,,,,,4,001,,,2020_Sep_07_1737,reactive_intentional_encoding_looped,3.2.4,60.10093736129692,
,,,,,,,,,,,,,,,images/dog_toy.png,A,object ,100,None,,,,,,,,,,,,,,,,,,,,,,,,,,,,,,,,,,,,,,,,,,,,,,,,,,,,,,,,,,,,,,,,,,,,,,,,,,,,,,,,,0,99,99,99,,,,,,,,,,,,,,,,,,,,,,,,,,,,,,,,,,,,,,,,,,,,,,,,,,,,,,,,,,,,,,,243.98120204400038,None,None,,243.98120204400038,None,243.98120204400038,None,243.98120204400038,None,243.98120204400038,None,243.98120204400038,None,245.99094006200903,None,,,,,,,4,001,,,2020_Sep_07_1737,reactive_intentional_encoding_looped,3.2.4,60.10093736129692,
,,,,,,,,,,,,,,,images/remotecontrol.png,new,object ,101,None,,,,,,,,,,,,,,,,,,,,,,,,,,,,,,,,,,,,,,,,,,,,,,,,,,,,,,,,,,,,,,,,,,,,,,,,,,,,,,,,,0,100,100,100,,,,,,,,,,,,,,,,,,,,,,,,,,,,,,,,,,,,,,,,,,,,,,,,,,,,,,,,,,,,,,,246.4979759240232,None,None,,246.4979759240232,None,246.4979759240232,None,246.4979759240232,None,246.4979759240232,None,246.4979759240232,None,248.50688695002464,None,,,,,,,4,001,,,2020_Sep_07_1737,reactive_intentional_encoding_looped,3.2.4,60.10093736129692,
,,,,,,,,,,,,,,,images/rope_skipping.png,C,object ,102,indirect,,,,,,,,,,,,,,,,,,,,,,,,,,,,,,,,,,,,,,,,,,,,,,,,,,,,,,,,,,,,,,,,,,,,,,,,,,,,,,,,,0,101,101,101,,,,,,,,,,,,,,,,,,,,,,,,,,,,,,,,,,,,,,,,,,,,,,,,,,,,,,,,,,,,,,,249.01443219100474,None,None,,249.01443219100474,None,249.01443219100474,None,249.01443219100474,None,249.01443219100474,None,249.01443219100474,None,251.02428484000848,None,,,,,,,4,001,,,2020_Sep_07_1737,reactive_intentional_encoding_looped,3.2.4,60.10093736129692,
,,,,,,,,,,,,,,,images/giants_causeway_b.jpg,B,scene,103,indirect,,,,,,,,,,,,,,,,,,,,,,,,,,,,,,,,,,,,,,,,,,,,,,,,,,,,,,,,,,,,,,,,,,,,,,,,,,,,,,,,,0,102,102,102,,,,,,,,,,,,,,,,,,,,,,,,,,,,,,,,,,,,,,,,,,,,,,,,,,,,,,,,,,,,,,,251.53128883402678,None,None,,251.53128883402678,None,251.53128883402678,None,251.53128883402678,None,251.53128883402678,None,251.53128883402678,None,253.54089312200085,None,,,,,,,4,001,,,2020_Sep_07_1737,reactive_intentional_encoding_looped,3.2.4,60.10093736129692,
,,,,,,,,,,,,,,,images/socks_winter.png,A,object ,104,None,,,,,,,,,,,,,,,,,,,,,,,,,,,,,,,,,,,,,,,,,,,,,,,,,,,,,,,,,,,,,,,,,,,,,,,,,,,,,,,,,0,103,103,103,,,,,,,,,,,,,,,,,,,,,,,,,,,,,,,,,,,,,,,,,,,,,,,,,,,,,,,,,,,,,,,254.04700289299944,None,None,,254.04700289299944,None,254.04700289299944,None,254.04700289299944,None,254.04700289299944,None,254.04700289299944,None,256.05754066602094,None,,,,,,,4,001,,,2020_Sep_07_1737,reactive_intentional_encoding_looped,3.2.4,60.10093736129692,
,,,,,,,,,,,,,,,images/stroller.jpg,C,object ,105,direct,,,,,,,,,,,,,,,,,,,,,,,,,,,,,,,,,,,,,,,,,,,,,,,,,,,,,,,,,,,,,,,,,,,,,,,,,,,,,,,,,0,104,104,104,,,,,,,,,,,,,,,,,,,,,,,,,,,,,,,,,,,,,,,,,,,,,,,,,,,,,,,,,,,,,,,256.5753966460179,None,None,,256.5753966460179,None,256.5753966460179,None,256.5753966460179,None,256.5753966460179,None,256.5753966460179,None,258.59069146300317,None,,,,,,,4,001,,,2020_Sep_07_1737,reactive_intentional_encoding_looped,3.2.4,60.10093736129692,
,,,,,,,,,,,,,,,images/acropolis_c.jpg,B,scene,106,direct,,,,,,,,,,,,,,,,,,,,,,,,,,,,,,,,,,,,,,,,,,,,,,,,,,,,,,,,,,,,,,,,,,,,,,,,,,,,,,,,,0,105,105,105,,,,,,,,,,,,,,,,,,,,,,,,,,,,,,,,,,,,,,,,,,,,,,,,,,,,,,,,,,,,,,,259.10002473401255,None,None,,259.10002473401255,None,259.10002473401255,None,259.10002473401255,None,259.10002473401255,None,259.10002473401255,None,261.10747804600396,None,,,,,,,4,001,,,2020_Sep_07_1737,reactive_intentional_encoding_looped,3.2.4,60.10093736129692,
,,,,,,,,,,,,,,,images/jefferson_memorial_c.jpg,new,scene,107,None,,,,,,,,,,,,,,,,,,,,,,,,,,,,,,,,,,,,,,,,,,,,,,,,,,,,,,,,,,,,,,,,,,,,,,,,,,,,,,,,,0,106,106,106,,,,,,,,,,,,,,,,,,,,,,,,,,,,,,,,,,,,,,,,,,,,,,,,,,,,,,,,,,,,,,,261.6128974010062,None,None,,261.6128974010062,None,261.6128974010062,None,261.6128974010062,None,261.6128974010062,None,261.6128974010062,None,263.62315748402034,None,,,,,,,4,001,,,2020_Sep_07_1737,reactive_intentional_encoding_looped,3.2.4,60.10093736129692,
,,,,,,,,,,,,,,,images/worldmap.png,C,object ,108,direct,,,,,,,,,,,,,,,,,,,,,,,,,,,,,,,,,,,,,,,,,,,,,,,,,,,,,,,,,,,,,,,,,,,,,,,,,,,,,,,,,0,107,107,107,,,,,,,,,,,,,,,,,,,,,,,,,,,,,,,,,,,,,,,,,,,,,,,,,,,,,,,,,,,,,,,264.14547155302716,None,None,,264.14547155302716,None,264.14547155302716,None,264.14547155302716,None,264.14547155302716,None,264.14547155302716,None,266.15725190602825,None,,,,,,,4,001,,,2020_Sep_07_1737,reactive_intentional_encoding_looped,3.2.4,60.10093736129692,
,,,,,,,,,,,,,,,images/grand_tetons_a.jpg,B,scene,109,direct,,,,,,,,,,,,,,,,,,,,,,,,,,,,,,,,,,,,,,,,,,,,,,,,,,,,,,,,,,,,,,,,,,,,,,,,,,,,,,,,,0,108,108,108,,,,,,,,,,,,,,,,,,,,,,,,,,,,,,,,,,,,,,,,,,,,,,,,,,,,,,,,,,,,,,,266.6733784530079,None,None,,266.6733784530079,None,266.6733784530079,None,266.6733784530079,None,266.6733784530079,None,266.6733784530079,None,268.6737100680184,None,,,,,,,4,001,,,2020_Sep_07_1737,reactive_intentional_encoding_looped,3.2.4,60.10093736129692,
,,,,,,,,,,,,,,,images/pyramid.png,new,object ,110,None,,,,,,,,,,,,,,,,,,,,,,,,,,,,,,,,,,,,,,,,,,,,,,,,,,,,,,,,,,,,,,,,,,,,,,,,,,,,,,,,,0,109,109,109,,,,,,,,,,,,,,,,,,,,,,,,,,,,,,,,,,,,,,,,,,,,,,,,,,,,,,,,,,,,,,,269.19078107201494,None,None,,269.19078107201494,None,269.19078107201494,None,269.19078107201494,None,269.19078107201494,None,269.19078107201494,None,271.1907282650063,None,,,,,,,4,001,,,2020_Sep_07_1737,reactive_intentional_encoding_looped,3.2.4,60.10093736129692,
,,,,,,,,,,,,,,,images/soap.png,C,object ,111,direct,,,,,,,,,,,,,,,,,,,,,,,,,,,,,,,,,,,,,,,,,,,,,,,,,,,,,,,,,,,,,,,,,,,,,,,,,,,,,,,,,0,110,110,110,,,,,,,,,,,,,,,,,,,,,,,,,,,,,,,,,,,,,,,,,,,,,,,,,,,,,,,,,,,,,,,271.70673863301636,None,None,,271.70673863301636,None,271.70673863301636,None,271.70673863301636,None,271.70673863301636,None,271.70673863301636,None,273.7073535310046,None,,,,,,,4,001,,,2020_Sep_07_1737,reactive_intentional_encoding_looped,3.2.4,60.10093736129692,
,,,,,,,,,,,,,,,images/hillary_clinton_a.jpg,B,face,112,direct,,,,,,,,,,,,,,,,,,,,,,,,,,,,,,,,,,,,,,,,,,,,,,,,,,,,,,,,,,,,,,,,,,,,,,,,,,,,,,,,,0,111,111,111,,,,,,,,,,,,,,,,,,,,,,,,,,,,,,,,,,,,,,,,,,,,,,,,,,,,,,,,,,,,,,,274.2235063720145,None,None,,274.2235063720145,None,274.2235063720145,None,274.2235063720145,None,274.2235063720145,None,274.2235063720145,None,276.2233743329998,None,,,,,,,4,001,,,2020_Sep_07_1737,reactive_intentional_encoding_looped,3.2.4,60.10093736129692,
,,,,,,,,,,,,,,,images/radioclock.jpg,new,object ,113,None,,,,,,,,,,,,,,,,,,,,,,,,,,,,,,,,,,,,,,,,,,,,,,,,,,,,,,,,,,,,,,,,,,,,,,,,,,,,,,,,,0,112,112,112,,,,,,,,,,,,,,,,,,,,,,,,,,,,,,,,,,,,,,,,,,,,,,,,,,,,,,,,,,,,,,,276.74498861201573,None,None,,276.74498861201573,None,276.74498861201573,None,276.74498861201573,None,276.74498861201573,None,276.74498861201573,None,278.7570147229999,None,,,,,,,4,001,,,2020_Sep_07_1737,reactive_intentional_encoding_looped,3.2.4,60.10093736129692,
,,,,,,,,,,,,,,,images/victoria_falls_c.jpg,new,scene,114,None,,,,,,,,,,,,,,,,,,,,,,,,,,,,,,,,,,,,,,,,,,,,,,,,,,,,,,,,,,,,,,,,,,,,,,,,,,,,,,,,,0,113,113,113,,,,,,,,,,,,,,,,,,,,,,,,,,,,,,,,,,,,,,,,,,,,,,,,,,,,,,,,,,,,,,,279.2732892050117,None,None,,279.2732892050117,None,279.2732892050117,None,279.2732892050117,None,279.2732892050117,None,279.2732892050117,None,281.27307583999936,None,,,,,,,4,001,,,2020_Sep_07_1737,reactive_intentional_encoding_looped,3.2.4,60.10093736129692,
,,,,,,,,,,,,,,,images/package.png,C,object ,115,indirect,,,,,,,,,,,,,,,,,,,,,,,,,,,,,,,,,,,,,,,,,,,,,,,,,,,,,,,,,,,,,,,,,,,,,,,,,,,,,,,,,0,114,114,114,,,,,,,,,,,,,,,,,,,,,,,,,,,,,,,,,,,,,,,,,,,,,,,,,,,,,,,,,,,,,,,281.7904794300266,None,None,,281.7904794300266,None,281.7904794300266,None,281.7904794300266,None,281.7904794300266,None,281.7904794300266,None,283.7902337310079,None,,,,,,,4,001,,,2020_Sep_07_1737,reactive_intentional_encoding_looped,3.2.4,60.10093736129692,
,,,,,,,,,,,,,,,images/oprah_b.jpg,B,face,116,indirect,,,,,,,,,,,,,,,,,,,,,,,,,,,,,,,,,,,,,,,,,,,,,,,,,,,,,,,,,,,,,,,,,,,,,,,,,,,,,,,,,0,115,115,115,,,,,,,,,,,,,,,,,,,,,,,,,,,,,,,,,,,,,,,,,,,,,,,,,,,,,,,,,,,,,,,284.30710787602584,None,None,,284.30710787602584,None,284.30710787602584,None,284.30710787602584,None,284.30710787602584,None,284.30710787602584,None,286.30707082300796,None,,,,,,,4,001,,,2020_Sep_07_1737,reactive_intentional_encoding_looped,3.2.4,60.10093736129692,
,,,,,,,,,,,,,,,images/liza_minelli_a.jpg,new,face,117,None,,,,,,,,,,,,,,,,,,,,,,,,,,,,,,,,,,,,,,,,,,,,,,,,,,,,,,,,,,,,,,,,,,,,,,,,,,,,,,,,,0,116,116,116,,,,,,,,,,,,,,,,,,,,,,,,,,,,,,,,,,,,,,,,,,,,,,,,,,,,,,,,,,,,,,,286.82367445601267,None,None,,286.82367445601267,None,286.82367445601267,None,286.82367445601267,None,286.82367445601267,None,286.82367445601267,None,288.82368539701565,None,,,,,,,4,001,,,2020_Sep_07_1737,reactive_intentional_encoding_looped,3.2.4,60.10093736129692,
,,,,,,,,,,,,,,,images/wreath.png,C,object ,118,indirect,,,,,,,,,,,,,,,,,,,,,,,,,,,,,,,,,,,,,,,,,,,,,,,,,,,,,,,,,,,,,,,,,,,,,,,,,,,,,,,,,0,117,117,117,,,,,,,,,,,,,,,,,,,,,,,,,,,,,,,,,,,,,,,,,,,,,,,,,,,,,,,,,,,,,,,289.361019295,None,None,,289.361019295,None,289.361019295,None,289.361019295,None,289.361019295,None,289.361019295,None,291.37355324300006,None,,,,,,,4,001,,,2020_Sep_07_1737,reactive_intentional_encoding_looped,3.2.4,60.10093736129692,
,,,,,,,,,,,,,,,images/jennifer_aniston_a.jpg,B,face,119,indirect,,,,,,,,,,,,,,,,,,,,,,,,,,,,,,,,,,,,,,,,,,,,,,,,,,,,,,,,,,,,,,,,,,,,,,,,,,,,,,,,,0,118,118,118,,,,,,,,,,,,,,,,,,,,,,,,,,,,,,,,,,,,,,,,,,,,,,,,,,,,,,,,,,,,,,,291.8901423260104,None,None,,291.8901423260104,None,291.8901423260104,None,291.8901423260104,None,291.8901423260104,None,291.8901423260104,None,293.88994435500354,None,,,,,,,4,001,,,2020_Sep_07_1737,reactive_intentional_encoding_looped,3.2.4,60.10093736129692,
,,,,,,,,,,,,,,,images/ruler_triangle.png,C,object ,120,direct,,,,,,,,,,,,,,,,,,,,,,,,,,,,,,,,,,,,,,,,,,,,,,,,,,,,,,,,,,,,,,,,,,,,,,,,,,,,,,,,,0,119,119,119,,,,,,,,,,,,,,,,,,,,,,,,,,,,,,,,,,,,,,,,,,,,,,,,,,,,,,,,,,,,,,,294.407198224013,None,None,,294.407198224013,None,294.407198224013,None,294.407198224013,None,294.407198224013,None,294.407198224013,None,296.40658267601975,None,,,,,,,4,001,,,2020_Sep_07_1737,reactive_intentional_encoding_looped,3.2.4,60.10093736129692,
,,,,,,,,,,,,,,,images/times_square_b.jpg,B,scene,121,direct,,,,,,,,,,,,,,,,,,,,,,,,,,,,,,,,,,,,,,,,,,,,,,,,,,,,,,,,,,,,,,,,,,,,,,,,,,,,,,,,,0,120,120,120,,,,,,,,,,,,,,,,,,,,,,,,,,,,,,,,,,,,,,,,,,,,,,,,,,,,,,,,,,,,,,,296.940222913021,None,None,,296.940222913021,None,296.940222913021,None,296.940222913021,None,296.940222913021,None,296.940222913021,None,298.9397622970282,None,,,,,,,4,001,,,2020_Sep_07_1737,reactive_intentional_encoding_looped,3.2.4,60.10093736129692,
,,,,,,,,,,,,,,,images/snorkle.jpg,A,object ,122,None,,,,,,,,,,,,,,,,,,,,,,,,,,,,,,,,,,,,,,,,,,,,,,,,,,,,,,,,,,,,,,,,,,,,,,,,,,,,,,,,,0,121,121,121,,,,,,,,,,,,,,,,,,,,,,,,,,,,,,,,,,,,,,,,,,,,,,,,,,,,,,,,,,,,,,,299.4609205860179,None,None,,299.4609205860179,None,299.4609205860179,None,299.4609205860179,None,299.4609205860179,None,299.4609205860179,None,301.4731736340036,None,,,,,,,4,001,,,2020_Sep_07_1737,reactive_intentional_encoding_looped,3.2.4,60.10093736129692,
,,,,,,,,,,,,,,,images/bathrobe.png,A,object ,123,None,,,,,,,,,,,,,,,,,,,,,,,,,,,,,,,,,,,,,,,,,,,,,,,,,,,,,,,,,,,,,,,,,,,,,,,,,,,,,,,,,0,122,122,122,,,,,,,,,,,,,,,,,,,,,,,,,,,,,,,,,,,,,,,,,,,,,,,,,,,,,,,,,,,,,,,301.9788547650096,None,None,,301.9788547650096,None,301.9788547650096,None,301.9788547650096,None,301.9788547650096,None,301.9788547650096,None,303.9895264720253,None,,,,,,,4,001,,,2020_Sep_07_1737,reactive_intentional_encoding_looped,3.2.4,60.10093736129692,
,,,,,,,,,,,,,,,images/ball_8.png,A,object ,124,None,,,,,,,,,,,,,,,,,,,,,,,,,,,,,,,,,,,,,,,,,,,,,,,,,,,,,,,,,,,,,,,,,,,,,,,,,,,,,,,,,0,123,123,123,,,,,,,,,,,,,,,,,,,,,,,,,,,,,,,,,,,,,,,,,,,,,,,,,,,,,,,,,,,,,,,304.5057728700049,None,None,,304.5057728700049,None,304.5057728700049,None,304.5057728700049,None,304.5057728700049,None,304.5057728700049,None,306.5067373550264,None,,,,,,,4,001,,,2020_Sep_07_1737,reactive_intentional_encoding_looped,3.2.4,60.10093736129692,
,,,,,,,,,,,,,,,images/lucy_liu_b.jpg,new,face,125,None,,,,,,,,,,,,,,,,,,,,,,,,,,,,,,,,,,,,,,,,,,,,,,,,,,,,,,,,,,,,,,,,,,,,,,,,,,,,,,,,,0,124,124,124,,,,,,,,,,,,,,,,,,,,,,,,,,,,,,,,,,,,,,,,,,,,,,,,,,,,,,,,,,,,,,,307.02278833201854,None,None,,307.02278833201854,None,307.02278833201854,None,307.02278833201854,None,307.02278833201854,None,307.02278833201854,None,309.0232326070254,None,,,,,,,4,001,,,2020_Sep_07_1737,reactive_intentional_encoding_looped,3.2.4,60.10093736129692,
,,,,,,,,,,,,,,,images/mt_st_helens_c.jpg,new,scene,126,None,,,,,,,,,,,,,,,,,,,,,,,,,,,,,,,,,,,,,,,,,,,,,,,,,,,,,,,,,,,,,,,,,,,,,,,,,,,,,,,,,0,125,125,125,,,,,,,,,,,,,,,,,,,,,,,,,,,,,,,,,,,,,,,,,,,,,,,,,,,,,,,,,,,,,,,309.53887845101417,None,None,,309.53887845101417,None,309.53887845101417,None,309.53887845101417,None,309.53887845101417,None,309.53887845101417,None,311.53961836200324,None,,,,,,,4,001,,,2020_Sep_07_1737,reactive_intentional_encoding_looped,3.2.4,60.10093736129692,
,,,,,,,,,,,,,,,images/skates.png,C,object ,127,direct,,,,,,,,,,,,,,,,,,,,,,,,,,,,,,,,,,,,,,,,,,,,,,,,,,,,,,,,,,,,,,,,,,,,,,,,,,,,,,,,,0,126,126,126,,,,,,,,,,,,,,,,,,,,,,,,,,,,,,,,,,,,,,,,,,,,,,,,,,,,,,,,,,,,,,,312.0561669380113,None,None,,312.0561669380113,None,312.0561669380113,None,312.0561669380113,None,312.0561669380113,None,312.0561669380113,None,314.05680257701897,None,,,,,,,4,001,,,2020_Sep_07_1737,reactive_intentional_encoding_looped,3.2.4,60.10093736129692,
,,,,,,,,,,,,,,,images/george_clooney_a.jpg,B,face,128,direct,,,,,,,,,,,,,,,,,,,,,,,,,,,,,,,,,,,,,,,,,,,,,,,,,,,,,,,,,,,,,,,,,,,,,,,,,,,,,,,,,0,127,127,127,,,,,,,,,,,,,,,,,,,,,,,,,,,,,,,,,,,,,,,,,,,,,,,,,,,,,,,,,,,,,,,314.57309141900623,None,None,,314.57309141900623,None,314.57309141900623,None,314.57309141900623,None,314.57309141900623,None,314.57309141900623,None,316.573191796022,None,,,,,,,4,001,,,2020_Sep_07_1737,reactive_intentional_encoding_looped,3.2.4,60.10093736129692,
,,,,,,,,,,,,,,,images/pants_firefighter.jpg,A,object ,129,None,,,,,,,,,,,,,,,,,,,,,,,,,,,,,,,,,,,,,,,,,,,,,,,,,,,,,,,,,,,,,,,,,,,,,,,,,,,,,,,,,0,128,128,128,,,,,,,,,,,,,,,,,,,,,,,,,,,,,,,,,,,,,,,,,,,,,,,,,,,,,,,,,,,,,,,317.092983103008,None,None,,317.092983103008,None,317.092983103008,None,317.092983103008,None,317.092983103008,None,317.092983103008,None,319.1054828360211,None,,,,,,,4,001,,,2020_Sep_07_1737,reactive_intentional_encoding_looped,3.2.4,60.10093736129692,
,,,,,,,,,,,,,,,images/barrel.jpg,A,object ,130,None,,,,,,,,,,,,,,,,,,,,,,,,,,,,,,,,,,,,,,,,,,,,,,,,,,,,,,,,,,,,,,,,,,,,,,,,,,,,,,,,,0,129,129,129,,,,,,,,,,,,,,,,,,,,,,,,,,,,,,,,,,,,,,,,,,,,,,,,,,,,,,,,,,,,,,,319.62330126500456,None,None,,319.62330126500456,None,319.62330126500456,None,319.62330126500456,None,319.62330126500456,None,319.62330126500456,None,321.6220760420256,None,,,,,,,4,001,,,2020_Sep_07_1737,reactive_intentional_encoding_looped,3.2.4,60.10093736129692,
,,,,,,,,,,,,,,,images/gum_pack.png,new,object ,131,None,,,,,,,,,,,,,,,,,,,,,,,,,,,,,,,,,,,,,,,,,,,,,,,,,,,,,,,,,,,,,,,,,,,,,,,,,,,,,,,,,0,130,130,130,,,,,,,,,,,,,,,,,,,,,,,,,,,,,,,,,,,,,,,,,,,,,,,,,,,,,,,,,,,,,,,322.13969821401406,None,None,,322.13969821401406,None,322.13969821401406,None,322.13969821401406,None,322.13969821401406,None,322.13969821401406,None,324.138576938014,None,,,,,,,4,001,,,2020_Sep_07_1737,reactive_intentional_encoding_looped,3.2.4,60.10093736129692,
,,,,,,,,,,,,,,,images/notre_dame_a.jpg,new,scene,132,None,,,,,,,,,,,,,,,,,,,,,,,,,,,,,,,,,,,,,,,,,,,,,,,,,,,,,,,,,,,,,,,,,,,,,,,,,,,,,,,,,0,131,131,131,,,,,,,,,,,,,,,,,,,,,,,,,,,,,,,,,,,,,,,,,,,,,,,,,,,,,,,,,,,,,,,324.6566179410147,None,None,,324.6566179410147,None,324.6566179410147,None,324.6566179410147,None,324.6566179410147,None,324.6566179410147,None,326.6719109120022,None,,,,,,,4,001,,,2020_Sep_07_1737,reactive_intentional_encoding_looped,3.2.4,60.10093736129692,
,,,,,,,,,,,,,,,images/paper towel.jpg,C,object ,133,indirect,,,,,,,,,,,,,,,,,,,,,,,,,,,,,,,,,,,,,,,,,,,,,,,,,,,,,,,,,,,,,,,,,,,,,,,,,,,,,,,,,0,132,132,132,,,,,,,,,,,,,,,,,,,,,,,,,,,,,,,,,,,,,,,,,,,,,,,,,,,,,,,,,,,,,,,327.1906196900236,None,None,,327.1906196900236,None,327.1906196900236,None,327.1906196900236,None,327.1906196900236,None,327.1906196900236,None,329.2049856460071,None,,,,,,,4,001,,,2020_Sep_07_1737,reactive_intentional_encoding_looped,3.2.4,60.10093736129692,
,,,,,,,,,,,,,,,images/queen_elizabeth_a.jpg,B,face,134,indirect,,,,,,,,,,,,,,,,,,,,,,,,,,,,,,,,,,,,,,,,,,,,,,,,,,,,,,,,,,,,,,,,,,,,,,,,,,,,,,,,,0,133,133,133,,,,,,,,,,,,,,,,,,,,,,,,,,,,,,,,,,,,,,,,,,,,,,,,,,,,,,,,,,,,,,,329.722551112005,None,None,,329.722551112005,None,329.722551112005,None,329.722551112005,None,329.722551112005,None,329.722551112005,None,331.7218523020274,None,,,,,,,4,001,,,2020_Sep_07_1737,reactive_intentional_encoding_looped,3.2.4,60.10093736129692,
,,,,,,,,,,,,,,,images/michael_douglas_a.jpg,new,face,135,None,,,,,,,,,,,,,,,,,,,,,,,,,,,,,,,,,,,,,,,,,,,,,,,,,,,,,,,,,,,,,,,,,,,,,,,,,,,,,,,,,0,134,134,134,,,,,,,,,,,,,,,,,,,,,,,,,,,,,,,,,,,,,,,,,,,,,,,,,,,,,,,,,,,,,,,332.2394330210227,None,None,,332.2394330210227,None,332.2394330210227,None,332.2394330210227,None,332.2394330210227,None,332.2394330210227,None,334.2550486480177,None,,,,,,,4,001,,,2020_Sep_07_1737,reactive_intentional_encoding_looped,3.2.4,60.10093736129692,
,,,,,,,,,,,,,,,images/figurine_ballerina.jpg,A,object ,136,None,,,,,,,,,,,,,,,,,,,,,,,,,,,,,,,,,,,,,,,,,,,,,,,,,,,,,,,,,,,,,,,,,,,,,,,,,,,,,,,,,0,135,135,135,,,,,,,,,,,,,,,,,,,,,,,,,,,,,,,,,,,,,,,,,,,,,,,,,,,,,,,,,,,,,,,334.77306785900146,None,None,,334.77306785900146,None,334.77306785900146,None,334.77306785900146,None,334.77306785900146,None,334.77306785900146,None,336.77192821601056,None,,,,,,,4,001,,,2020_Sep_07_1737,reactive_intentional_encoding_looped,3.2.4,60.10093736129692,
,,,,,,,,,,,,,,,images/pencilCase.png,C,object ,137,indirect,,,,,,,,,,,,,,,,,,,,,,,,,,,,,,,,,,,,,,,,,,,,,,,,,,,,,,,,,,,,,,,,,,,,,,,,,,,,,,,,,0,136,136,136,,,,,,,,,,,,,,,,,,,,,,,,,,,,,,,,,,,,,,,,,,,,,,,,,,,,,,,,,,,,,,,337.2905785810144,None,None,,337.2905785810144,None,337.2905785810144,None,337.2905785810144,None,337.2905785810144,None,337.2905785810144,None,339.28946182402433,None,,,,,,,4,001,,,2020_Sep_07_1737,reactive_intentional_encoding_looped,3.2.4,60.10093736129692,
,,,,,,,,,,,,,,,images/giza_pyramids_c.jpg,B,scene,138,indirect,,,,,,,,,,,,,,,,,,,,,,,,,,,,,,,,,,,,,,,,,,,,,,,,,,,,,,,,,,,,,,,,,,,,,,,,,,,,,,,,,0,137,137,137,,,,,,,,,,,,,,,,,,,,,,,,,,,,,,,,,,,,,,,,,,,,,,,,,,,,,,,,,,,,,,,339.8071608830069,None,None,,339.8071608830069,None,339.8071608830069,None,339.8071608830069,None,339.8071608830069,None,339.8071608830069,None,341.806500428007,None,,,,,,,4,001,,,2020_Sep_07_1737,reactive_intentional_encoding_looped,3.2.4,60.10093736129692,
,,,,,,,,,,,,,,,images/notepad.jpg,C,object ,139,direct,,,,,,,,,,,,,,,,,,,,,,,,,,,,,,,,,,,,,,,,,,,,,,,,,,,,,,,,,,,,,,,,,,,,,,,,,,,,,,,,,0,138,138,138,,,,,,,,,,,,,,,,,,,,,,,,,,,,,,,,,,,,,,,,,,,,,,,,,,,,,,,,,,,,,,,342.3202509530238,None,None,,342.3202509530238,None,342.3202509530238,None,342.3202509530238,None,342.3202509530238,None,342.3202509530238,None,344.3228202610044,None,,,,,,,4,001,,,2020_Sep_07_1737,reactive_intentional_encoding_looped,3.2.4,60.10093736129692,
,,,,,,,,,,,,,,,images/arches_national_park_a.jpg,B,scene,140,direct,,,,,,,,,,,,,,,,,,,,,,,,,,,,,,,,,,,,,,,,,,,,,,,,,,,,,,,,,,,,,,,,,,,,,,,,,,,,,,,,,0,139,139,139,,,,,,,,,,,,,,,,,,,,,,,,,,,,,,,,,,,,,,,,,,,,,,,,,,,,,,,,,,,,,,,344.8379837370012,None,None,,344.8379837370012,None,344.8379837370012,None,344.8379837370012,None,344.8379837370012,None,344.8379837370012,None,346.83860468302737,None,,,,,,,4,001,,,2020_Sep_07_1737,reactive_intentional_encoding_looped,3.2.4,60.10093736129692,
,,,,,,,,,,,,,,,images/necklace_pearl.jpg,C,object ,141,direct,,,,,,,,,,,,,,,,,,,,,,,,,,,,,,,,,,,,,,,,,,,,,,,,,,,,,,,,,,,,,,,,,,,,,,,,,,,,,,,,,0,140,140,140,,,,,,,,,,,,,,,,,,,,,,,,,,,,,,,,,,,,,,,,,,,,,,,,,,,,,,,,,,,,,,,347.35713053302607,None,None,,347.35713053302607,None,347.35713053302607,None,347.35713053302607,None,347.35713053302607,None,347.35713053302607,None,349.3557002960006,None,,,,,,,4,001,,,2020_Sep_07_1737,reactive_intentional_encoding_looped,3.2.4,60.10093736129692,
,,,,,,,,,,,,,,,images/katy_perry.jpg,B,face,142,direct,,,,,,,,,,,,,,,,,,,,,,,,,,,,,,,,,,,,,,,,,,,,,,,,,,,,,,,,,,,,,,,,,,,,,,,,,,,,,,,,,0,141,141,141,,,,,,,,,,,,,,,,,,,,,,,,,,,,,,,,,,,,,,,,,,,,,,,,,,,,,,,,,,,,,,,349.86999802000355,None,None,,349.86999802000355,None,349.86999802000355,None,349.86999802000355,None,349.86999802000355,None,349.86999802000355,None,351.8725721370138,None,,,,,,,4,001,,,2020_Sep_07_1737,reactive_intentional_encoding_looped,3.2.4,60.10093736129692,
,,,,,,,,,,,,,,,images/paintcan.jpg,C,object ,143,indirect,,,,,,,,,,,,,,,,,,,,,,,,,,,,,,,,,,,,,,,,,,,,,,,,,,,,,,,,,,,,,,,,,,,,,,,,,,,,,,,,,0,142,142,142,,,,,,,,,,,,,,,,,,,,,,,,,,,,,,,,,,,,,,,,,,,,,,,,,,,,,,,,,,,,,,,352.38521133802715,None,None,,352.38521133802715,None,352.38521133802715,None,352.38521133802715,None,352.38521133802715,None,352.38521133802715,None,354.3887479730183,None,,,,,,,4,001,,,2020_Sep_07_1737,reactive_intentional_encoding_looped,3.2.4,60.10093736129692,
,,,,,,,,,,,,,,,images/glacier_national_park_c.jpg,B,scene,144,indirect,,,,,,,,,,,,,,,,,,,,,,,,,,,,,,,,,,,,,,,,,,,,,,,,,,,,,,,,,,,,,,,,,,,,,,,,,,,,,,,,,0,143,143,143,,,,,,,,,,,,,,,,,,,,,,,,,,,,,,,,,,,,,,,,,,,,,,,,,,,,,,,,,,,,,,,354.90607049601385,None,None,,354.90607049601385,None,354.90607049601385,None,354.90607049601385,None,354.90607049601385,None,354.90607049601385,None,356.9049728490063,None,,,,,,,4,001,,,2020_Sep_07_1737,reactive_intentional_encoding_looped,3.2.4,60.10093736129692,
,,,,,,,,,,,,,,,images/flute_wooden.jpg,A,object ,145,None,,,,,,,,,,,,,,,,,,,,,,,,,,,,,,,,,,,,,,,,,,,,,,,,,,,,,,,,,,,,,,,,,,,,,,,,,,,,,,,,,0,144,144,144,,,,,,,,,,,,,,,,,,,,,,,,,,,,,,,,,,,,,,,,,,,,,,,,,,,,,,,,,,,,,,,357.43586965600844,None,None,,357.43586965600844,None,357.43586965600844,None,357.43586965600844,None,357.43586965600844,None,357.43586965600844,None,359.43908514102804,None,,,,,,,4,001,,,2020_Sep_07_1737,reactive_intentional_encoding_looped,3.2.4,60.10093736129692,
,,,,,,,,,,,,,,,images/owen_wilson_a.jpg,new,face,146,None,,,,,,,,,,,,,,,,,,,,,,,,,,,,,,,,,,,,,,,,,,,,,,,,,,,,,,,,,,,,,,,,,,,,,,,,,,,,,,,,,0,145,145,145,,,,,,,,,,,,,,,,,,,,,,,,,,,,,,,,,,,,,,,,,,,,,,,,,,,,,,,,,,,,,,,360.0518723090063,None,None,,360.0518723090063,None,360.0518723090063,None,360.0518723090063,None,360.0518723090063,None,360.0518723090063,None,362.0558934600267,None,,,,,,,4,001,,,2020_Sep_07_1737,reactive_intentional_encoding_looped,3.2.4,60.10093736129692,
,,,,,,,,,,,,,,,images/carton_eggs.jpg,A,object ,147,None,,,,,,,,,,,,,,,,,,,,,,,,,,,,,,,,,,,,,,,,,,,,,,,,,,,,,,,,,,,,,,,,,,,,,,,,,,,,,,,,,0,146,146,146,,,,,,,,,,,,,,,,,,,,,,,,,,,,,,,,,,,,,,,,,,,,,,,,,,,,,,,,,,,,,,,362.5851638910244,None,None,,362.5851638910244,None,362.5851638910244,None,362.5851638910244,None,362.5851638910244,None,362.5851638910244,None,364.5852503940114,None,,,,,,,4,001,,,2020_Sep_07_1737,reactive_intentional_encoding_looped,3.2.4,60.10093736129692,
,,,,,,,,,,,,,,,images/checkers_board.png,A,object ,148,None,,,,,,,,,,,,,,,,,,,,,,,,,,,,,,,,,,,,,,,,,,,,,,,,,,,,,,,,,,,,,,,,,,,,,,,,,,,,,,,,,0,147,147,147,,,,,,,,,,,,,,,,,,,,,,,,,,,,,,,,,,,,,,,,,,,,,,,,,,,,,,,,,,,,,,,365.10188415501034,None,None,,365.10188415501034,None,365.10188415501034,None,365.10188415501034,None,365.10188415501034,None,365.10188415501034,None,367.10002121300204,None,,,,,,,4,001,,,2020_Sep_07_1737,reactive_intentional_encoding_looped,3.2.4,60.10093736129692,
,,,,,,,,,,,,,,,images/matt_damon_b.jpg,new,face,149,None,,,,,,,,,,,,,,,,,,,,,,,,,,,,,,,,,,,,,,,,,,,,,,,,,,,,,,,,,,,,,,,,,,,,,,,,,,,,,,,,,0,148,148,148,,,,,,,,,,,,,,,,,,,,,,,,,,,,,,,,,,,,,,,,,,,,,,,,,,,,,,,,,,,,,,,367.60730021700147,None,None,,367.60730021700147,None,367.60730021700147,None,367.60730021700147,None,367.60730021700147,None,367.60730021700147,None,369.62131155401585,None,,,,,,,4,001,,,2020_Sep_07_1737,reactive_intentional_encoding_looped,3.2.4,60.10093736129692,
,,,,,,,,,,,,,,,images/pailGarden.jpg,C,object ,150,direct,,,,,,,,,,,,,,,,,,,,,,,,,,,,,,,,,,,,,,,,,,,,,,,,,,,,,,,,,,,,,,,,,,,,,,,,,,,,,,,,,0,149,149,149,,,,,,,,,,,,,,,,,,,,,,,,,,,,,,,,,,,,,,,,,,,,,,,,,,,,,,,,,,,,,,,370.15042866099975,None,None,,370.15042866099975,None,370.15042866099975,None,370.15042866099975,None,370.15042866099975,None,370.15042866099975,None,372.15121834300226,None,,,,,,,4,001,,,2020_Sep_07_1737,reactive_intentional_encoding_looped,3.2.4,60.10093736129692,
,,,,,,,,,,,,,,,images/great_wall_of_china_c.jpg,B,scene,151,direct,,,,,,,,,,,,,,,,,,,,,,,,,,,,,,,,,,,,,,,,,,,,,,,,,,,,,,,,,,,,,,,,,,,,,,,,,,,,,,,,,0,150,150,150,,,,,,,,,,,,,,,,,,,,,,,,,,,,,,,,,,,,,,,,,,,,,,,,,,,,,,,,,,,,,,,372.6670609120047,None,None,,372.6670609120047,None,372.6670609120047,None,372.6670609120047,None,372.6670609120047,None,372.6670609120047,None,374.66695826200885,None,,,,,,,4,001,,,2020_Sep_07_1737,reactive_intentional_encoding_looped,3.2.4,60.10093736129692,
,,,,,,,,,,,,,,,images/mitten.png,C,object ,152,indirect,,,,,,,,,,,,,,,,,,,,,,,,,,,,,,,,,,,,,,,,,,,,,,,,,,,,,,,,,,,,,,,,,,,,,,,,,,,,,,,,,0,151,151,151,,,,,,,,,,,,,,,,,,,,,,,,,,,,,,,,,,,,,,,,,,,,,,,,,,,,,,,,,,,,,,,375.1865950480278,None,None,,375.1865950480278,None,375.1865950480278,None,375.1865950480278,None,375.1865950480278,None,375.1865950480278,None,377.1990457540087,None,,,,,,,4,001,,,2020_Sep_07_1737,reactive_intentional_encoding_looped,3.2.4,60.10093736129692,
,,,,,,,,,,,,,,,images/eiffel_tower_c.jpg,B,scene,153,indirect,,,,,,,,,,,,,,,,,,,,,,,,,,,,,,,,,,,,,,,,,,,,,,,,,,,,,,,,,,,,,,,,,,,,,,,,,,,,,,,,,0,152,152,152,,,,,,,,,,,,,,,,,,,,,,,,,,,,,,,,,,,,,,,,,,,,,,,,,,,,,,,,,,,,,,,377.71212395100156,None,None,,377.71212395100156,None,377.71212395100156,None,377.71212395100156,None,377.71212395100156,None,377.71212395100156,None,379.7229433800094,None,,,,,,,4,001,,,2020_Sep_07_1737,reactive_intentional_encoding_looped,3.2.4,60.10093736129692,
,,,,,,,,,,,,,,,images/fuzzydice.jpg,A,object ,154,None,,,,,,,,,,,,,,,,,,,,,,,,,,,,,,,,,,,,,,,,,,,,,,,,,,,,,,,,,,,,,,,,,,,,,,,,,,,,,,,,,0,153,153,153,,,,,,,,,,,,,,,,,,,,,,,,,,,,,,,,,,,,,,,,,,,,,,,,,,,,,,,,,,,,,,,380.2330843320233,None,None,,380.2330843320233,None,380.2330843320233,None,380.2330843320233,None,380.2330843320233,None,380.2330843320233,None,382.2330644169997,None,,,,,,,4,001,,,2020_Sep_07_1737,reactive_intentional_encoding_looped,3.2.4,60.10093736129692,
,,,,,,,,,,,,,,,images/liam_neeson_c.jpg,new,face,155,None,,,,,,,,,,,,,,,,,,,,,,,,,,,,,,,,,,,,,,,,,,,,,,,,,,,,,,,,,,,,,,,,,,,,,,,,,,,,,,,,,0,154,154,154,,,,,,,,,,,,,,,,,,,,,,,,,,,,,,,,,,,,,,,,,,,,,,,,,,,,,,,,,,,,,,,382.76572774202214,None,None,,382.76572774202214,None,382.76572774202214,None,382.76572774202214,None,382.76572774202214,None,382.76572774202214,None,384.76593787802267,None,,,,,,,4,001,,,2020_Sep_07_1737,reactive_intentional_encoding_looped,3.2.4,60.10093736129692,
,,,,,,,,,,,,,,,images/taj_mahal_a.jpg,new,scene,156,None,,,,,,,,,,,,,,,,,,,,,,,,,,,,,,,,,,,,,,,,,,,,,,,,,,,,,,,,,,,,,,,,,,,,,,,,,,,,,,,,,0,155,155,155,,,,,,,,,,,,,,,,,,,,,,,,,,,,,,,,,,,,,,,,,,,,,,,,,,,,,,,,,,,,,,,385.2825152440055,None,None,,385.2825152440055,None,385.2825152440055,None,385.2825152440055,None,385.2825152440055,None,385.2825152440055,None,387.2825266350119,None,,,,,,,4,001,,,2020_Sep_07_1737,reactive_intentional_encoding_looped,3.2.4,60.10093736129692,
,,,,,,,,,,,,,,,images/wrigley_field_a.jpg,new,scene,157,None,,,,,,,,,,,,,,,,,,,,,,,,,,,,,,,,,,,,,,,,,,,,,,,,,,,,,,,,,,,,,,,,,,,,,,,,,,,,,,,,,0,156,156,156,,,,,,,,,,,,,,,,,,,,,,,,,,,,,,,,,,,,,,,,,,,,,,,,,,,,,,,,,,,,,,,387.8064109090192,None,None,,387.8064109090192,None,387.8064109090192,None,387.8064109090192,None,387.8064109090192,None,387.8064109090192,None,389.8225357950141,None,,,,,,,4,001,,,2020_Sep_07_1737,reactive_intentional_encoding_looped,3.2.4,60.10093736129692,
,,,,,,,,,,,,,,,images/sundae_banana.jpg,A,object ,158,None,,,,,,,,,,,,,,,,,,,,,,,,,,,,,,,,,,,,,,,,,,,,,,,,,,,,,,,,,,,,,,,,,,,,,,,,,,,,,,,,,0,157,157,157,,,,,,,,,,,,,,,,,,,,,,,,,,,,,,,,,,,,,,,,,,,,,,,,,,,,,,,,,,,,,,,390.3325203980203,None,None,,390.3325203980203,None,390.3325203980203,None,390.3325203980203,None,390.3325203980203,None,390.3325203980203,None,392.3313769210072,None,,,,,,,4,001,,,2020_Sep_07_1737,reactive_intentional_encoding_looped,3.2.4,60.10093736129692,
,,,,,,,,,,,,,,,images/egg_easter.jpg,A,object ,159,None,,,,,,,,,,,,,,,,,,,,,,,,,,,,,,,,,,,,,,,,,,,,,,,,,,,,,,,,,,,,,,,,,,,,,,,,,,,,,,,,,0,158,158,158,,,,,,,,,,,,,,,,,,,,,,,,,,,,,,,,,,,,,,,,,,,,,,,,,,,,,,,,,,,,,,,392.849116538011,None,None,,392.849116538011,None,392.849116538011,None,392.849116538011,None,392.849116538011,None,392.849116538011,None,394.86380593900685,None,,,,,,,4,001,,,2020_Sep_07_1737,reactive_intentional_encoding_looped,3.2.4,60.10093736129692,
,,,,,,,,,,,,,,,images/nicole_kidman_b.jpg,new,face,160,None,,,,,,,,,,,,,,,,,,,,,,,,,,,,,,,,,,,,,,,,,,,,,,,,,,,,,,,,,,,,,,,,,,,,,,,,,,,,,,,,,0,159,159,159,,,,,,,,,,,,,,,,,,,,,,,,,,,,,,,,,,,,,,,,,,,,,,,,,,,,,,,,,,,,,,,395.3806464310037,None,None,,395.3806464310037,None,395.3806464310037,None,395.3806464310037,None,395.3806464310037,None,395.3806464310037,None,397.3805282480025,None,,,,,,,4,001,,,2020_Sep_07_1737,reactive_intentional_encoding_looped,3.2.4,60.10093736129692,
,,,,,,,,,,,,,,,images/goggles_swim.png,A,object ,161,None,,,,,,,,,,,,,,,,,,,,,,,,,,,,,,,,,,,,,,,,,,,,,,,,,,,,,,,,,,,,,,,,,,,,,,,,,,,,,,,,,0,160,160,160,,,,,,,,,,,,,,,,,,,,,,,,,,,,,,,,,,,,,,,,,,,,,,,,,,,,,,,,,,,,,,,397.8973287080007,None,None,,397.8973287080007,None,397.8973287080007,None,397.8973287080007,None,397.8973287080007,None,397.8973287080007,None,399.8980471350078,None,,,,,,,4,001,,,2020_Sep_07_1737,reactive_intentional_encoding_looped,3.2.4,60.10093736129692,
,,,,,,,,,,,,,,,images/partyDress.png,C,object ,162,indirect,,,,,,,,,,,,,,,,,,,,,,,,,,,,,,,,,,,,,,,,,,,,,,,,,,,,,,,,,,,,,,,,,,,,,,,,,,,,,,,,,0,161,161,161,,,,,,,,,,,,,,,,,,,,,,,,,,,,,,,,,,,,,,,,,,,,,,,,,,,,,,,,,,,,,,,400.40519698601565,None,None,,400.40519698601565,None,400.40519698601565,None,400.40519698601565,None,400.40519698601565,None,400.40519698601565,None,402.4061415770266,None,,,,,,,4,001,,,2020_Sep_07_1737,reactive_intentional_encoding_looped,3.2.4,60.10093736129692,
,,,,,,,,,,,,,,,images/kristen_stewart.jpg,B,face,163,indirect,,,,,,,,,,,,,,,,,,,,,,,,,,,,,,,,,,,,,,,,,,,,,,,,,,,,,,,,,,,,,,,,,,,,,,,,,,,,,,,,,0,162,162,162,,,,,,,,,,,,,,,,,,,,,,,,,,,,,,,,,,,,,,,,,,,,,,,,,,,,,,,,,,,,,,,402.92194910001126,None,None,,402.92194910001126,None,402.92194910001126,None,402.92194910001126,None,402.92194910001126,None,402.92194910001126,None,404.9220888460113,None,,,,,,,4,001,,,2020_Sep_07_1737,reactive_intentional_encoding_looped,3.2.4,60.10093736129692,
,,,,,,,,,,,,,,,images/mask_hockeygoalie.png,C,object ,164,indirect,,,,,,,,,,,,,,,,,,,,,,,,,,,,,,,,,,,,,,,,,,,,,,,,,,,,,,,,,,,,,,,,,,,,,,,,,,,,,,,,,0,163,163,163,,,,,,,,,,,,,,,,,,,,,,,,,,,,,,,,,,,,,,,,,,,,,,,,,,,,,,,,,,,,,,,405.4462931890157,None,None,,405.4462931890157,None,405.4462931890157,None,405.4462931890157,None,405.4462931890157,None,405.4462931890157,None,407.4462704040052,None,,,,,,,4,001,,,2020_Sep_07_1737,reactive_intentional_encoding_looped,3.2.4,60.10093736129692,
,,,,,,,,,,,,,,,images/gwen_stefani_c.jpg,B,face,165,indirect,,,,,,,,,,,,,,,,,,,,,,,,,,,,,,,,,,,,,,,,,,,,,,,,,,,,,,,,,,,,,,,,,,,,,,,,,,,,,,,,,0,164,164,164,,,,,,,,,,,,,,,,,,,,,,,,,,,,,,,,,,,,,,,,,,,,,,,,,,,,,,,,,,,,,,,407.96245064100367,None,None,,407.96245064100367,None,407.96245064100367,None,407.96245064100367,None,407.96245064100367,None,407.96245064100367,None,409.97216498700436,None,,,,,,,4,001,,,2020_Sep_07_1737,reactive_intentional_encoding_looped,3.2.4,60.10093736129692,
,,,,,,,,,,,,,,,images/watergun.png,C,object ,166,direct,,,,,,,,,,,,,,,,,,,,,,,,,,,,,,,,,,,,,,,,,,,,,,,,,,,,,,,,,,,,,,,,,,,,,,,,,,,,,,,,,0,165,165,165,,,,,,,,,,,,,,,,,,,,,,,,,,,,,,,,,,,,,,,,,,,,,,,,,,,,,,,,,,,,,,,410.4881408540241,None,None,,410.4881408540241,None,410.4881408540241,None,410.4881408540241,None,410.4881408540241,None,410.4881408540241,None,412.4884080760239,None,,,,,,,4,001,,,2020_Sep_07_1737,reactive_intentional_encoding_looped,3.2.4,60.10093736129692,
,,,,,,,,,,,,,,,images/jackie_kennedy_a.jpg,B,face,167,direct,,,,,,,,,,,,,,,,,,,,,,,,,,,,,,,,,,,,,,,,,,,,,,,,,,,,,,,,,,,,,,,,,,,,,,,,,,,,,,,,,0,166,166,166,,,,,,,,,,,,,,,,,,,,,,,,,,,,,,,,,,,,,,,,,,,,,,,,,,,,,,,,,,,,,,,412.99648622301174,None,None,,412.99648622301174,None,412.99648622301174,None,412.99648622301174,None,412.99648622301174,None,412.99648622301174,None,415.00578822402167,None,,,,,,,4,001,,,2020_Sep_07_1737,reactive_intentional_encoding_looped,3.2.4,60.10093736129692,
,,,,,,,,,,,,,,,images/puzzlepiece.png,new,object ,168,None,,,,,,,,,,,,,,,,,,,,,,,,,,,,,,,,,,,,,,,,,,,,,,,,,,,,,,,,,,,,,,,,,,,,,,,,,,,,,,,,,0,167,167,167,,,,,,,,,,,,,,,,,,,,,,,,,,,,,,,,,,,,,,,,,,,,,,,,,,,,,,,,,,,,,,,415.51255931300693,None,None,,415.51255931300693,None,415.51255931300693,None,415.51255931300693,None,415.51255931300693,None,415.51255931300693,None,417.52222459201585,None,,,,,,,4,001,,,2020_Sep_07_1737,reactive_intentional_encoding_looped,3.2.4,60.10093736129692,
,,,,,,,,,,,,,,,images/gun_nerf.jpg,new,object ,169,None,,,,,,,,,,,,,,,,,,,,,,,,,,,,,,,,,,,,,,,,,,,,,,,,,,,,,,,,,,,,,,,,,,,,,,,,,,,,,,,,,0,168,168,168,,,,,,,,,,,,,,,,,,,,,,,,,,,,,,,,,,,,,,,,,,,,,,,,,,,,,,,,,,,,,,,418.0451615660277,None,None,,418.0451615660277,None,418.0451615660277,None,418.0451615660277,None,418.0451615660277,None,418.0451615660277,None,420.05487033200916,None,,,,,,,4,001,,,2020_Sep_07_1737,reactive_intentional_encoding_looped,3.2.4,60.10093736129692,
,,,,,,,,,,,,,,,images/mousepad.png,C,object ,170,direct,,,,,,,,,,,,,,,,,,,,,,,,,,,,,,,,,,,,,,,,,,,,,,,,,,,,,,,,,,,,,,,,,,,,,,,,,,,,,,,,,0,169,169,169,,,,,,,,,,,,,,,,,,,,,,,,,,,,,,,,,,,,,,,,,,,,,,,,,,,,,,,,,,,,,,,420.57226406101836,None,None,,420.57226406101836,None,420.57226406101836,None,420.57226406101836,None,420.57226406101836,None,420.57226406101836,None,422.571840124001,None,,,,,,,4,001,,,2020_Sep_07_1737,reactive_intentional_encoding_looped,3.2.4,60.10093736129692,
,,,,,,,,,,,,,,,images/ellen_degeneres_b.jpg,B,face,171,direct,,,,,,,,,,,,,,,,,,,,,,,,,,,,,,,,,,,,,,,,,,,,,,,,,,,,,,,,,,,,,,,,,,,,,,,,,,,,,,,,,0,170,170,170,,,,,,,,,,,,,,,,,,,,,,,,,,,,,,,,,,,,,,,,,,,,,,,,,,,,,,,,,,,,,,,423.0889902690251,None,None,,423.0889902690251,None,423.0889902690251,None,423.0889902690251,None,423.0889902690251,None,423.0889902690251,None,425.0885566850193,None,,,,,,,4,001,,,2020_Sep_07_1737,reactive_intentional_encoding_looped,3.2.4,60.10093736129692,
,,,,,,,,,,,,,,,images/shield_antique.png,A,object ,172,None,,,,,,,,,,,,,,,,,,,,,,,,,,,,,,,,,,,,,,,,,,,,,,,,,,,,,,,,,,,,,,,,,,,,,,,,,,,,,,,,,0,171,171,171,,,,,,,,,,,,,,,,,,,,,,,,,,,,,,,,,,,,,,,,,,,,,,,,,,,,,,,,,,,,,,,425.6212268110248,None,None,,425.6212268110248,None,425.6212268110248,None,425.6212268110248,None,425.6212268110248,None,425.6212268110248,None,427.6216635730234,None,,,,,,,4,001,,,2020_Sep_07_1737,reactive_intentional_encoding_looped,3.2.4,60.10093736129692,
,,,,,,,,,,,,,,,images/milk_shake.jpg,A,object ,173,None,,,,,,,,,,,,,,,,,,,,,,,,,,,,,,,,,,,,,,,,,,,,,,,,,,,,,,,,,,,,,,,,,,,,,,,,,,,,,,,,,0,172,172,172,,,,,,,,,,,,,,,,,,,,,,,,,,,,,,,,,,,,,,,,,,,,,,,,,,,,,,,,,,,,,,,428.1285138700041,None,None,,428.1285138700041,None,428.1285138700041,None,428.1285138700041,None,428.1285138700041,None,428.1285138700041,None,430.13866689702263,None,,,,,,,4,001,,,2020_Sep_07_1737,reactive_intentional_encoding_looped,3.2.4,60.10093736129692,
,,,,,,,,,,,,,,,images/napkin_ring.png,C,object ,174,indirect,,,,,,,,,,,,,,,,,,,,,,,,,,,,,,,,,,,,,,,,,,,,,,,,,,,,,,,,,,,,,,,,,,,,,,,,,,,,,,,,,0,173,173,173,,,,,,,,,,,,,,,,,,,,,,,,,,,,,,,,,,,,,,,,,,,,,,,,,,,,,,,,,,,,,,,430.6562034030212,None,None,,430.6562034030212,None,430.6562034030212,None,430.6562034030212,None,430.6562034030212,None,430.6562034030212,None,432.6549689010135,None,,,,,,,4,001,,,2020_Sep_07_1737,reactive_intentional_encoding_looped,3.2.4,60.10093736129692,
,,,,,,,,,,,,,,,images/emma_watson.jpg,B,face,175,indirect,,,,,,,,,,,,,,,,,,,,,,,,,,,,,,,,,,,,,,,,,,,,,,,,,,,,,,,,,,,,,,,,,,,,,,,,,,,,,,,,,0,174,174,174,,,,,,,,,,,,,,,,,,,,,,,,,,,,,,,,,,,,,,,,,,,,,,,,,,,,,,,,,,,,,,,433.171971556003,None,None,,433.171971556003,None,433.171971556003,None,433.171971556003,None,433.171971556003,None,433.171971556003,None,435.18734304700047,None,,,,,,,4,001,,,2020_Sep_07_1737,reactive_intentional_encoding_looped,3.2.4,60.10093736129692,
,,,,,,,,,,,,,,,images/eyeMask.jpg,A,object ,176,None,,,,,,,,,,,,,,,,,,,,,,,,,,,,,,,,,,,,,,,,,,,,,,,,,,,,,,,,,,,,,,,,,,,,,,,,,,,,,,,,,0,175,175,175,,,,,,,,,,,,,,,,,,,,,,,,,,,,,,,,,,,,,,,,,,,,,,,,,,,,,,,,,,,,,,,435.6948891940119,None,None,,435.6948891940119,None,435.6948891940119,None,435.6948891940119,None,435.6948891940119,None,435.6948891940119,None,437.7046704280074,None,,,,,,,4,001,,,2020_Sep_07_1737,reactive_intentional_encoding_looped,3.2.4,60.10093736129692,
,,,,,,,,,,,,,,,images/mary_j_blige_b.jpg,new,face,177,None,,,,,,,,,,,,,,,,,,,,,,,,,,,,,,,,,,,,,,,,,,,,,,,,,,,,,,,,,,,,,,,,,,,,,,,,,,,,,,,,,0,176,176,176,,,,,,,,,,,,,,,,,,,,,,,,,,,,,,,,,,,,,,,,,,,,,,,,,,,,,,,,,,,,,,,438.2215960480098,None,None,,438.2215960480098,None,438.2215960480098,None,438.2215960480098,None,438.2215960480098,None,438.2215960480098,None,440.2215701000241,None,,,,,,,4,001,,,2020_Sep_07_1737,reactive_intentional_encoding_looped,3.2.4,60.10093736129692,
,,,,,,,,,,,,,,,images/nicolas_cage_c.jpg,new,face,178,None,,,,,,,,,,,,,,,,,,,,,,,,,,,,,,,,,,,,,,,,,,,,,,,,,,,,,,,,,,,,,,,,,,,,,,,,,,,,,,,,,0,177,177,177,,,,,,,,,,,,,,,,,,,,,,,,,,,,,,,,,,,,,,,,,,,,,,,,,,,,,,,,,,,,,,,440.72913796899957,None,None,,440.72913796899957,None,440.72913796899957,None,440.72913796899957,None,440.72913796899957,None,440.72913796899957,None,442.73890764501994,None,,,,,,,4,001,,,2020_Sep_07_1737,reactive_intentional_encoding_looped,3.2.4,60.10093736129692,
,,,,,,,,,,,,,,,images/pan_muffin.png,C,object ,179,indirect,,,,,,,,,,,,,,,,,,,,,,,,,,,,,,,,,,,,,,,,,,,,,,,,,,,,,,,,,,,,,,,,,,,,,,,,,,,,,,,,,0,178,178,178,,,,,,,,,,,,,,,,,,,,,,,,,,,,,,,,,,,,,,,,,,,,,,,,,,,,,,,,,,,,,,,443.255806347006,None,None,,443.255806347006,None,443.255806347006,None,443.255806347006,None,443.255806347006,None,443.255806347006,None,445.2550960869994,None,,,,,,,4,001,,,2020_Sep_07_1737,reactive_intentional_encoding_looped,3.2.4,60.10093736129692,
,,,,,,,,,,,,,,,images/courtney_cox_c.jpg,B,face,180,indirect,,,,,,,,,,,,,,,,,,,,,,,,,,,,,,,,,,,,,,,,,,,,,,,,,,,,,,,,,,,,,,,,,,,,,,,,,,,,,,,,,0,179,179,179,,,,,,,,,,,,,,,,,,,,,,,,,,,,,,,,,,,,,,,,,,,,,,,,,,,,,,,,,,,,,,,445.77212258800864,None,None,,445.77212258800864,None,445.77212258800864,None,445.77212258800864,None,445.77212258800864,None,445.77212258800864,None,447.7719698230212,None,,,,,,,4,001,,,2020_Sep_07_1737,reactive_intentional_encoding_looped,3.2.4,60.10093736129692,
,,,,,,,,,,,,,,,images/paddle.png,C,object ,181,indirect,,,,,,,,,,,,,,,,,,,,,,,,,,,,,,,,,,,,,,,,,,,,,,,,,,,,,,,,,,,,,,,,,,,,,,,,,,,,,,,,,0,180,180,180,,,,,,,,,,,,,,,,,,,,,,,,,,,,,,,,,,,,,,,,,,,,,,,,,,,,,,,,,,,,,,,448.28722810102045,None,None,,448.28722810102045,None,448.28722810102045,None,448.28722810102045,None,448.28722810102045,None,448.28722810102045,None,450.28836865600897,None,,,,,,,4,001,,,2020_Sep_07_1737,reactive_intentional_encoding_looped,3.2.4,60.10093736129692,
,,,,,,,,,,,,,,,images/flatiron_building_b.jpg,B,scene,182,indirect,,,,,,,,,,,,,,,,,,,,,,,,,,,,,,,,,,,,,,,,,,,,,,,,,,,,,,,,,,,,,,,,,,,,,,,,,,,,,,,,,0,181,181,181,,,,,,,,,,,,,,,,,,,,,,,,,,,,,,,,,,,,,,,,,,,,,,,,,,,,,,,,,,,,,,,450.80393657900277,None,None,,450.80393657900277,None,450.80393657900277,None,450.80393657900277,None,450.80393657900277,None,450.80393657900277,None,452.80442406001384,None,,,,,,,4,001,,,2020_Sep_07_1737,reactive_intentional_encoding_looped,3.2.4,60.10093736129692,
,,,,,,,,,,,,,,,images/pants_firefighter.jpg,C,object ,183,direct,,,,,,,,,,,,,,,,,,,,,,,,,,,,,,,,,,,,,,,,,,,,,,,,,,,,,,,,,,,,,,,,,,,,,,,,,,,,,,,,,0,182,182,182,,,,,,,,,,,,,,,,,,,,,,,,,,,,,,,,,,,,,,,,,,,,,,,,,,,,,,,,,,,,,,,453.3218259390269,None,None,,453.3218259390269,None,453.3218259390269,None,453.3218259390269,None,453.3218259390269,None,453.3218259390269,None,455.33771274299943,None,,,,,,,4,001,,,2020_Sep_07_1737,reactive_intentional_encoding_looped,3.2.4,60.10093736129692,
,,,,,,,,,,,,,,,images/tower_of_pisa_c.jpg,B,scene,184,direct,,,,,,,,,,,,,,,,,,,,,,,,,,,,,,,,,,,,,,,,,,,,,,,,,,,,,,,,,,,,,,,,,,,,,,,,,,,,,,,,,0,183,183,183,,,,,,,,,,,,,,,,,,,,,,,,,,,,,,,,,,,,,,,,,,,,,,,,,,,,,,,,,,,,,,,455.8587264920061,None,None,,455.8587264920061,None,455.8587264920061,None,455.8587264920061,None,455.8587264920061,None,455.8587264920061,None,457.87186716502765,None,,,,,,,4,001,,,2020_Sep_07_1737,reactive_intentional_encoding_looped,3.2.4,60.10093736129692,
,,,,,,,,,,,,,,,images/cane.png,new,object ,185,None,,,,,,,,,,,,,,,,,,,,,,,,,,,,,,,,,,,,,,,,,,,,,,,,,,,,,,,,,,,,,,,,,,,,,,,,,,,,,,,,,0,184,184,184,,,,,,,,,,,,,,,,,,,,,,,,,,,,,,,,,,,,,,,,,,,,,,,,,,,,,,,,,,,,,,,458.3885561180068,None,None,,458.3885561180068,None,458.3885561180068,None,458.3885561180068,None,458.3885561180068,None,458.3885561180068,None,460.3878136840067,None,,,,,,,4,001,,,2020_Sep_07_1737,reactive_intentional_encoding_looped,3.2.4,60.10093736129692,
,,,,,,,,,,,,,,,images/noisemaker.jpg,C,object ,186,direct,,,,,,,,,,,,,,,,,,,,,,,,,,,,,,,,,,,,,,,,,,,,,,,,,,,,,,,,,,,,,,,,,,,,,,,,,,,,,,,,,0,185,185,185,,,,,,,,,,,,,,,,,,,,,,,,,,,,,,,,,,,,,,,,,,,,,,,,,,,,,,,,,,,,,,,460.90376749800635,None,None,,460.90376749800635,None,460.90376749800635,None,460.90376749800635,None,460.90376749800635,None,460.90376749800635,None,462.9052496510267,None,,,,,,,4,001,,,2020_Sep_07_1737,reactive_intentional_encoding_looped,3.2.4,60.10093736129692,
,,,,,,,,,,,,,,,images/dakota_fanning_c.jpg,B,face,187,direct,,,,,,,,,,,,,,,,,,,,,,,,,,,,,,,,,,,,,,,,,,,,,,,,,,,,,,,,,,,,,,,,,,,,,,,,,,,,,,,,,0,186,186,186,,,,,,,,,,,,,,,,,,,,,,,,,,,,,,,,,,,,,,,,,,,,,,,,,,,,,,,,,,,,,,,463.42200079301256,None,None,,463.42200079301256,None,463.42200079301256,None,463.42200079301256,None,463.42200079301256,None,463.42200079301256,None,465.4215421200206,None,,,,,,,4,001,,,2020_Sep_07_1737,reactive_intentional_encoding_looped,3.2.4,60.10093736129692,
