Arrow_direction,correct_answer,incidental_image1,incidental_image2,Time,V1,trial,ImageA,location1,location2,location3,CategoryB,correct_image,ImageC,instruction_intentional_encoding.thisRepN,instruction_intentional_encoding.thisTrialN,instruction_intentional_encoding.thisN,instruction_intentional_encoding.thisIndex,practice_trials_intentional_encoding.thisRepN,practice_trials_intentional_encoding.thisTrialN,practice_trials_intentional_encoding.thisN,practice_trials_intentional_encoding.thisIndex,trials.thisRepN,trials.thisTrialN,trials.thisN,trials.thisIndex,trials_4.thisRepN,trials_4.thisTrialN,trials_4.thisN,trials_4.thisIndex,trials_2.thisRepN,trials_2.thisTrialN,trials_2.thisN,trials_2.thisIndex,trials_5.thisRepN,trials_5.thisTrialN,trials_5.thisN,trials_5.thisIndex,trials_3.thisRepN,trials_3.thisTrialN,trials_3.thisN,trials_3.thisIndex,trials_6.thisRepN,trials_6.thisTrialN,trials_6.thisN,trials_6.thisIndex,trials_7.thisRepN,trials_7.thisTrialN,trials_7.thisN,trials_7.thisIndex,trials_8.thisRepN,trials_8.thisTrialN,trials_8.thisN,trials_8.thisIndex,trials_9.thisRepN,trials_9.thisTrialN,trials_9.thisN,trials_9.thisIndex,trials_10.thisRepN,trials_10.thisTrialN,trials_10.thisN,trials_10.thisIndex,trials_11.thisRepN,trials_11.thisTrialN,trials_11.thisN,trials_11.thisIndex,trials_12.thisRepN,trials_12.thisTrialN,trials_12.thisN,trials_12.thisIndex,trials_13.thisRepN,trials_13.thisTrialN,trials_13.thisN,trials_13.thisIndex,trials_15.thisRepN,trials_15.thisTrialN,trials_15.thisN,trials_15.thisIndex,trials_14.thisRepN,trials_14.thisTrialN,trials_14.thisN,trials_14.thisIndex,trials_17.thisRepN,trials_17.thisTrialN,trials_17.thisN,trials_17.thisIndex,trials_16.thisRepN,trials_16.thisTrialN,trials_16.thisN,trials_16.thisIndex,text_9.started,text_9.stopped,key_resp_3.keys,key_resp_3.rt,key_resp_3.started,key_resp_3.stopped,post_retreival_practice_intructions.started,post_retreival_practice_intructions.stopped,key_resp_4.keys,key_resp_4.rt,key_resp_4.started,key_resp_4.stopped,text_12.started,text_12.stopped,key_resp_6.keys,key_resp_6.rt,key_resp_6.started,key_resp_6.stopped,text_13.started,text_13.stopped,key_resp_7.keys,key_resp_7.rt,key_resp_7.started,key_resp_7.stopped,text_15.started,text_15.stopped,key_resp_8.keys,key_resp_8.rt,key_resp_8.started,key_resp_8.stopped,text_22.started,text_22.stopped,fixation_.started,fixation_.stopped,incidental_image1_.started,incidental_image1_.stopped,key_resp_10.keys,key_resp_10.rt,key_resp_10.started,key_resp_10.stopped,text_18.started,text_18.stopped,text_19.started,text_19.stopped,text_20.started,text_20.stopped,text_21.started,text_21.stopped,incidental_image2_.started,incidental_image2_.stopped,image_16.started,image_16.stopped,key_resp_9.keys,key_resp_9.rt,key_resp_9.started,key_resp_9.stopped,F_press.started,F_press.stopped,J_press.started,J_press.stopped,left_press.started,left_press.stopped,right_press.started,right_press.stopped,text_2.started,text_2.stopped,key_resp_14.keys,key_resp_14.rt,key_resp_14.started,key_resp_14.stopped,image_A.started,image_A.stopped,image_c.started,image_c.stopped,key_resp_15.keys,key_resp_15.started,key_resp_15.stopped,text_23.started,text_23.stopped,text_24.started,text_24.stopped,text_25.started,text_25.stopped,text_26.started,text_26.stopped,participant,sex,age,,date,expName,psychopyVersion,frameRate,
,,,,,,,,,,,,,,,,,,,,,,,,,,,,,,,,,,,,,,,,,,,,,,,,,,,,,,,,,,,,,,,,,,,,,,,,,,,,,,,,,,,,,,,,,,9.29647391900653,None,space,0.06389633397338912,9.779447782988427,None,,,,,,,,,,,,,,,,,,,,,,,,,,,,,,,,,,,,,,,,,,,,,,,,,,,,,,,,,,,,,,,,,,,,,,,,,,,,,,,,4,001,,,2020_Sep_06_2018,reactive_intentional_encoding_looped,3.2.4,61.03029103354074,
,,,,,,,,,,,,,,,,,,,,,,,,,,,,,,,,,,,,,,,,,,,,,,,,,,,,,,,,,,,,,,,,,,,,,,,,,,,,,,,,,,,,,,,,,,,,,,,,9.900536050990922,None,space,1.2786778309964575,9.900536050990922,None,,,,,,,,,,,,,,,,,,,,,,,,,,,,,,,,,,,,,,,,,,,,,,,,,,,,,,,,,,,,,,,,,,,,,,,,,,4,001,,,2020_Sep_06_2018,reactive_intentional_encoding_looped,3.2.4,61.03029103354074,
,,,,,,,,,,,,,,,,,,,,,,,,,,,,,,,,,,,,,,,,,,,,,,,,,,,,,,,,,,,,,,,,,,,,,,,,,,,,,,,,,,,,,,,,,,,,,,,,,,,,,,11.245604005001951,None,space,0.19616113300435245,11.46530571000767,None,,,,,,,,,,,,,,,,,,,,,,,,,,,,,,,,,,,,,,,,,,,,,,,,,,,,,,,,,,,,,,,,,,,,4,001,,,2020_Sep_06_2018,reactive_intentional_encoding_looped,3.2.4,61.03029103354074,
,,,,,,,,,,,,,,,,,,,,,,,,,,,,,,,,,,,,,,,,,,,,,,,,,,,,,,,,,,,,,,,,,,,,,,,,,,,,,,,,,,,,,,,,,,,,,,,,,,,,,,,,,,,,11.695756308996351,None,space,0.8623900309903547,11.695756308996351,None,,,,,,,,,,,,,,,,,,,,,,,,,,,,,,,,,,,,,,,,,,,,,,,,,,,,,,,,,,,,,,4,001,,,2020_Sep_06_2018,reactive_intentional_encoding_looped,3.2.4,61.03029103354074,
,,,,,,,,,,,,,,,,,,,,,,,,,,,,,,,,,,,,,,,,,,,,,,,,,,,,,,,,,,,,,,,,,,,,,,,,,,,,,,,,,,,,,,,,,,,,,,,,,,,,,,12.611976040992886,None,space,1.7763651109999046,12.812695025990251,None,,,,,,,,,,,,,,,,,,,,,,,,,,,,,,,,,,,,,,,,,,,,,,,,,,,,,,,,,,,,,,,,,,,,4,001,,,2020_Sep_06_2018,reactive_intentional_encoding_looped,3.2.4,61.03029103354074,
,,,,,,,,,,,,,,,,,,,,,,,,,,,,,,,,,,,,,,,,,,,,,,,,,,,,,,,,,,,,,,,,,,,,,,,,,,,,,,,,,,,,,,,,,,,,,,,,,,,,,,,,,,,,14.628803967003478,None,space,1.219151608995162,14.628803967003478,None,,,,,,,,,,,,,,,,,,,,,,,,,,,,,,,,,,,,,,,,,,,,,,,,,,,,,,,,,,,,,,4,001,,,2020_Sep_06_2018,reactive_intentional_encoding_looped,3.2.4,61.03029103354074,
,,,,,,,,,,,,,,,,,,,,,,,,,,,,,,,,,,,,,,,,,,,,,,,,,,,,,,,,,,,,,,,,,,,,,,,,,,,,,,,,,,,,,,,,,,,,,,,,,,,,,,15.91277616599109,None,space,1.8126016179739963,16.129352936986834,None,,,,,,,,,,,,,,,,,,,,,,,,,,,,,,,,,,,,,,,,,,,,,,,,,,,,,,,,,,,,,,,,,,,,4,001,,,2020_Sep_06_2018,reactive_intentional_encoding_looped,3.2.4,61.03029103354074,
,,,,,,,,,,,,,,,,,,,,,,,,,,,,,,,,,,,,,,,,,,,,,,,,,,,,,,,,,,,,,,,,,,,,,,,,,,,,,,,,,,,,,,,,,,,,,,,,,,,,,,,,,,,,17.978736204997404,None,space,0.2761463300266769,17.978736204997404,None,,,,,,,,,,,,,,,,,,,,,,,,,,,,,,,,,,,,,,,,,,,,,,,,,,,,,,,,,,,,,,4,001,,,2020_Sep_06_2018,reactive_intentional_encoding_looped,3.2.4,61.03029103354074,
,,,,,,,,,,,,,,,,,,,,,,,,,,,,,,,,,,,,,,,,,,,,,,,,,,,,,,,,,,,,,,,,,,,,,,,,,,,,,,,,,,,,,,,,,,,,,,,,,,,,,,,,,,,,,,,,,,18.29483337298734,None,space,1.8090625699842349,18.29483337298734,None,,,,,,,,,,,,,,,,,,,,,,,,,,,,,,,,,,,,,,,,,,,,,,,,,,,,,,,,4,001,,,2020_Sep_06_2018,reactive_intentional_encoding_looped,3.2.4,61.03029103354074,
images/left.png,f,instruction_images/antlers.jpg,instruction_images/oldBook.png,95,,,,,,,,,,,,,,,,,,,,,,,,,,,,,,,,,,,,,,,,,,,,,,,,,,,,,,,,,,,,,,,,,,,,,,0,0,0,0,0,0,0,1,,,,,,,,,,,,,,,,,,,,,,,,,,,,,,,,,,,,,,,20.161506578006083,None,27.413246707001235,None,23.27808648298378,None,f,2.7006510799983516,23.27808648298378,None,23.27808648298378,None,23.27808648298378,None,23.27808648298378,None,23.27808648298378,None,23.27808648298378,None,26.661329138994915,None,f,0.729474459978519,26.661329138994915,None,26.661329138994915,None,26.661329138994915,None,26.661329138994915,None,26.661329138994915,None,,,,,,,,,,,,,,,,,,,,,,4,001,,,2020_Sep_06_2018,reactive_intentional_encoding_looped,3.2.4,61.03029103354074,
images/left.png,f,instruction_images/alpaca_fo.jpg,instruction_images/cake_cheese.png,75,,,,,,,,,,,,,,,,,,,,,,,,,,,,,,,,,,,,,,,,,,,,,,,,,,,,,,,,,,,,,,,,,,,,,,0,0,0,0,0,1,1,2,,,,,,,,,,,,,,,,,,,,,,,,,,,,,,,,,,,,,,,,,28.31217797897989,None,,,,,,,,,,,,,,,,,27.912039602990262,None,f,0.38167040000553243,27.912039602990262,None,27.912039602990262,None,27.912039602990262,None,27.912039602990262,None,27.912039602990262,None,,,,,,,,,,,,,,,,,,,,,,4,001,,,2020_Sep_06_2018,reactive_intentional_encoding_looped,3.2.4,61.03029103354074,
images/right.png,j,instruction_images/bug_ladybug.png,instruction_images/button_plastic.png,85,,,,,,,,,,,,,,,,,,,,,,,,,,,,,,,,,,,,,,,,,,,,,,,,,,,,,,,,,,,,,,,,,,,,,,0,0,0,0,0,2,2,0,,,,,,,,,,,,,,,,,,,,,,,,,,,,,,,,,,,,,,,,,29.245439831982367,None,,,,,,,,,,,,,,,,,28.812329192995094,None,j,0.4023351219948381,28.812329192995094,None,28.812329192995094,None,28.812329192995094,None,28.812329192995094,None,28.812329192995094,None,,,,,,,,,,,,,,,,,,,,,,4,001,,,2020_Sep_06_2018,reactive_intentional_encoding_looped,3.2.4,61.03029103354074,
images/right.png,j,instruction_images/bug_ladybug.png,instruction_images/button_plastic.png,85,,,,,,,,,,,,,,,,,,,,,,,,,,,,,,,,,,,,,,,,,,,,,,,,,,,,,,,,,,,,,,,,,,,,,,0,0,0,0,1,0,3,0,,,,,,,,,,,,,,,,,,,,,,,,,,,,,,,,,,,,,,,,,30.012069175980287,None,,,,,,,,,,,,,,,,,29.744539017992793,None,f,0.24818914500065148,29.744539017992793,None,29.744539017992793,None,29.744539017992793,None,29.744539017992793,None,29.744539017992793,None,,,,,,,,,,,,,,,,,,,,,,4,001,,,2020_Sep_06_2018,reactive_intentional_encoding_looped,3.2.4,61.03029103354074,
images/left.png,f,instruction_images/alpaca_fo.jpg,instruction_images/cake_cheese.png,75,,,,,,,,,,,,,,,,,,,,,,,,,,,,,,,,,,,,,,,,,,,,,,,,,,,,,,,,,,,,,,,,,,,,,,0,0,0,0,1,1,4,2,,,,,,,,,,,,,,,,,,,,,,,,,,,,,,,,,,,,,,,,,30.879497201996855,None,,,,,,,,,,,,,,,,,30.528705656004604,None,f,0.3329422390088439,30.528705656004604,None,30.528705656004604,None,30.528705656004604,None,30.528705656004604,None,30.528705656004604,None,,,,,,,,,,,,,,,,,,,,,,4,001,,,2020_Sep_06_2018,reactive_intentional_encoding_looped,3.2.4,61.03029103354074,
images/left.png,f,instruction_images/antlers.jpg,instruction_images/oldBook.png,95,,,,,,,,,,,,,,,,,,,,,,,,,,,,,,,,,,,,,,,,,,,,,,,,,,,,,,,,,,,,,,,,,,,,,,0,0,0,0,1,2,5,1,,,,,,,,,,,,,,,,,,,,,,,,,,,,,,,,,,,,,,,,,31.74625463798293,None,,,,,,,,,,,,,,,,,31.37770909498795,None,f,0.346848761982983,31.37770909498795,None,31.37770909498795,None,31.37770909498795,None,31.37770909498795,None,31.37770909498795,None,,,,,,,,,,,,,,,,,,,,,,4,001,,,2020_Sep_06_2018,reactive_intentional_encoding_looped,3.2.4,61.03029103354074,
images/right.png,j,instruction_images/bug_ladybug.png,instruction_images/button_plastic.png,85,,,,,,,,,,,,,,,,,,,,,,,,,,,,,,,,,,,,,,,,,,,,,,,,,,,,,,,,,,,,,,,,,,,,,,0,0,0,0,,,,,,,,,,,,,,,,,,,,,,,,,,,,,,,,,,,,,,,,,,,,,,,,,,,,,,,,,,,,,,,,,,,,,,,,,,,,,,,,,,,,,,,,,,,,,,,,,,4,001,,,2020_Sep_06_2018,reactive_intentional_encoding_looped,3.2.4,61.03029103354074,
images/left.png,f,instruction_images/antlers.jpg,instruction_images/oldBook.png,95,,,,,,,,,,,,,,,,,,,,,,,,,,,,,,,,,,,,,,,,,,,,,,,,,,,,,,,,,,,,,,,,,,,,,,0,1,1,1,0,0,0,1,,,,,,,,,,,,,,,,,,,,,,,,,,,,,,,,,,,,,,,32.26146144900122,None,40.4958597929799,None,35.29357779500424,None,f,2.6175997480168007,35.29357779500424,None,35.29357779500424,None,35.29357779500424,None,35.29357779500424,None,35.29357779500424,None,35.29357779500424,None,38.776177047984675,None,f,1.6960971780063119,38.776177047984675,None,38.776177047984675,None,38.776177047984675,None,38.776177047984675,None,38.776177047984675,None,,,,,,,,,,,,,,,,,,,,,,4,001,,,2020_Sep_06_2018,reactive_intentional_encoding_looped,3.2.4,61.03029103354074,
images/right.png,j,instruction_images/bug_ladybug.png,instruction_images/button_plastic.png,85,,,,,,,,,,,,,,,,,,,,,,,,,,,,,,,,,,,,,,,,,,,,,,,,,,,,,,,,,,,,,,,,,,,,,,0,1,1,1,0,1,1,0,,,,,,,,,,,,,,,,,,,,,,,,,,,,,,,,,,,,,,,,,41.294830623985035,None,,,,,,,,,,,,,,,,,40.99521113600349,None,j,0.27614232897758484,40.99521113600349,None,40.99521113600349,None,40.99521113600349,None,40.99521113600349,None,40.99521113600349,None,,,,,,,,,,,,,,,,,,,,,,4,001,,,2020_Sep_06_2018,reactive_intentional_encoding_looped,3.2.4,61.03029103354074,
images/left.png,f,instruction_images/alpaca_fo.jpg,instruction_images/cake_cheese.png,75,,,,,,,,,,,,,,,,,,,,,,,,,,,,,,,,,,,,,,,,,,,,,,,,,,,,,,,,,,,,,,,,,,,,,,0,1,1,1,0,2,2,2,,,,,,,,,,,,,,,,,,,,,,,,,,,,,,,,,,,,,,,,,42.17932262798422,None,,,,,,,,,,,,,,,,,41.79538154398324,None,f,0.3569286730198655,41.79538154398324,None,41.79538154398324,None,41.79538154398324,None,41.79538154398324,None,41.79538154398324,None,,,,,,,,,,,,,,,,,,,,,,4,001,,,2020_Sep_06_2018,reactive_intentional_encoding_looped,3.2.4,61.03029103354074,
images/left.png,f,instruction_images/antlers.jpg,instruction_images/oldBook.png,95,,,,,,,,,,,,,,,,,,,,,,,,,,,,,,,,,,,,,,,,,,,,,,,,,,,,,,,,,,,,,,,,,,,,,,0,1,1,1,1,0,3,1,,,,,,,,,,,,,,,,,,,,,,,,,,,,,,,,,,,,,,,,,43.14560927799903,None,,,,,,,,,,,,,,,,,42.67843322499539,None,f,0.4468528410070576,42.67843322499539,None,42.67843322499539,None,42.67843322499539,None,42.67843322499539,None,42.67843322499539,None,,,,,,,,,,,,,,,,,,,,,,4,001,,,2020_Sep_06_2018,reactive_intentional_encoding_looped,3.2.4,61.03029103354074,
images/left.png,f,instruction_images/alpaca_fo.jpg,instruction_images/cake_cheese.png,75,,,,,,,,,,,,,,,,,,,,,,,,,,,,,,,,,,,,,,,,,,,,,,,,,,,,,,,,,,,,,,,,,,,,,,0,1,1,1,1,1,4,2,,,,,,,,,,,,,,,,,,,,,,,,,,,,,,,,,,,,,,,,,44.06562503098394,None,,,,,,,,,,,,,,,,,43.64762791400426,None,f,0.3936128900095355,43.64762791400426,None,43.64762791400426,None,43.64762791400426,None,43.64762791400426,None,43.64762791400426,None,,,,,,,,,,,,,,,,,,,,,,4,001,,,2020_Sep_06_2018,reactive_intentional_encoding_looped,3.2.4,61.03029103354074,
images/right.png,j,instruction_images/bug_ladybug.png,instruction_images/button_plastic.png,85,,,,,,,,,,,,,,,,,,,,,,,,,,,,,,,,,,,,,,,,,,,,,,,,,,,,,,,,,,,,,,,,,,,,,,0,1,1,1,1,2,5,0,,,,,,,,,,,,,,,,,,,,,,,,,,,,,,,,,,,,,,,,,44.962847803981276,None,,,,,,,,,,,,,,,,,44.56436842898256,None,j,0.3778022690094076,44.56436842898256,None,44.56436842898256,None,44.56436842898256,None,44.56436842898256,None,44.56436842898256,None,,,,,,,,,,,,,,,,,,,,,,4,001,,,2020_Sep_06_2018,reactive_intentional_encoding_looped,3.2.4,61.03029103354074,
images/left.png,f,instruction_images/antlers.jpg,instruction_images/oldBook.png,95,,,,,,,,,,,,,,,,,,,,,,,,,,,,,,,,,,,,,,,,,,,,,,,,,,,,,,,,,,,,,,,,,,,,,,0,1,1,1,,,,,,,,,,,,,,,,,,,,,,,,,,,,,,,,,,,,,,,,,,,,,,,,,,,,,,,,,,,,,,,,,,,,,,,,,,,,,,,,,,,,,,,,,,,,,,,,,,4,001,,,2020_Sep_06_2018,reactive_intentional_encoding_looped,3.2.4,61.03029103354074,
images/right.png,j,instruction_images/bug_ladybug.png,instruction_images/button_plastic.png,85,,,,,,,,,,,,,,,,,,,,,,,,,,,,,,,,,,,,,,,,,,,,,,,,,,,,,,,,,,,,,,,,,,,,,,0,2,2,2,0,0,0,0,,,,,,,,,,,,,,,,,,,,,,,,,,,,,,,,,,,,,,,45.46202647298924,None,52.72940054399078,None,48.513099275005516,None,j,3.339234855986433,48.513099275005516,None,48.513099275005516,None,48.513099275005516,None,48.513099275005516,None,48.513099275005516,None,48.513099275005516,None,51.99201632500626,None,j,0.7072137070063036,51.99201632500626,None,51.99201632500626,None,51.99201632500626,None,51.99201632500626,None,51.99201632500626,None,,,,,,,,,,,,,,,,,,,,,,4,001,,,2020_Sep_06_2018,reactive_intentional_encoding_looped,3.2.4,61.03029103354074,
images/left.png,f,instruction_images/antlers.jpg,instruction_images/oldBook.png,95,,,,,,,,,,,,,,,,,,,,,,,,,,,,,,,,,,,,,,,,,,,,,,,,,,,,,,,,,,,,,,,,,,,,,,0,2,2,2,0,1,1,1,,,,,,,,,,,,,,,,,,,,,,,,,,,,,,,,,,,,,,,,,53.52873030700721,None,,,,,,,,,,,,,,,,,53.22900215900154,None,f,0.2690825719910208,53.22900215900154,None,53.22900215900154,None,53.22900215900154,None,53.22900215900154,None,53.22900215900154,None,,,,,,,,,,,,,,,,,,,,,,4,001,,,2020_Sep_06_2018,reactive_intentional_encoding_looped,3.2.4,61.03029103354074,
images/left.png,f,instruction_images/alpaca_fo.jpg,instruction_images/cake_cheese.png,75,,,,,,,,,,,,,,,,,,,,,,,,,,,,,,,,,,,,,,,,,,,,,,,,,,,,,,,,,,,,,,,,,,,,,,0,2,2,2,0,2,2,2,,,,,,,,,,,,,,,,,,,,,,,,,,,,,,,,,,,,,,,,,54.51223902599304,None,,,,,,,,,,,,,,,,,54.02922920699348,None,f,0.46059299100306816,54.02922920699348,None,54.02922920699348,None,54.02922920699348,None,54.02922920699348,None,54.02922920699348,None,,,,,,,,,,,,,,,,,,,,,,4,001,,,2020_Sep_06_2018,reactive_intentional_encoding_looped,3.2.4,61.03029103354074,
images/left.png,f,instruction_images/alpaca_fo.jpg,instruction_images/cake_cheese.png,75,,,,,,,,,,,,,,,,,,,,,,,,,,,,,,,,,,,,,,,,,,,,,,,,,,,,,,,,,,,,,,,,,,,,,,0,2,2,2,1,0,3,2,,,,,,,,,,,,,,,,,,,,,,,,,,,,,,,,,,,,,,,,,55.328519223985495,None,,,,,,,,,,,,,,,,,55.012156432989286,None,f,0.2836381150118541,55.012156432989286,None,55.012156432989286,None,55.012156432989286,None,55.012156432989286,None,55.012156432989286,None,,,,,,,,,,,,,,,,,,,,,,4,001,,,2020_Sep_06_2018,reactive_intentional_encoding_looped,3.2.4,61.03029103354074,
images/right.png,j,instruction_images/bug_ladybug.png,instruction_images/button_plastic.png,85,,,,,,,,,,,,,,,,,,,,,,,,,,,,,,,,,,,,,,,,,,,,,,,,,,,,,,,,,,,,,,,,,,,,,,0,2,2,2,1,1,4,0,,,,,,,,,,,,,,,,,,,,,,,,,,,,,,,,,,,,,,,,,56.27918976798537,None,,,,,,,,,,,,,,,,,55.827990165998926,None,j,0.41773978000856005,55.827990165998926,None,55.827990165998926,None,55.827990165998926,None,55.827990165998926,None,55.827990165998926,None,,,,,,,,,,,,,,,,,,,,,,4,001,,,2020_Sep_06_2018,reactive_intentional_encoding_looped,3.2.4,61.03029103354074,
images/left.png,f,instruction_images/antlers.jpg,instruction_images/oldBook.png,95,,,,,,,,,,,,,,,,,,,,,,,,,,,,,,,,,,,,,,,,,,,,,,,,,,,,,,,,,,,,,,,,,,,,,,0,2,2,2,1,2,5,1,,,,,,,,,,,,,,,,,,,,,,,,,,,,,,,,,,,,,,,,,57.14569014299195,None,,,,,,,,,,,,,,,,,56.77836311000283,None,f,0.3377016409940552,56.77836311000283,None,56.77836311000283,None,56.77836311000283,None,56.77836311000283,None,56.77836311000283,None,,,,,,,,,,,,,,,,,,,,,,4,001,,,2020_Sep_06_2018,reactive_intentional_encoding_looped,3.2.4,61.03029103354074,
images/left.png,f,instruction_images/alpaca_fo.jpg,instruction_images/cake_cheese.png,75,,,,,,,,,,,,,,,,,,,,,,,,,,,,,,,,,,,,,,,,,,,,,,,,,,,,,,,,,,,,,,,,,,,,,,0,2,2,2,,,,,,,,,,,,,,,,,,,,,,,,,,,,,,,,,,,,,,,,,,,,,,,,,,,,,,,,,,,,,,,,,,,,,,,,,,,,,,,,,,,,,,,,,,,,,,,,,,4,001,,,2020_Sep_06_2018,reactive_intentional_encoding_looped,3.2.4,61.03029103354074,
,,,,,,,,,,,,,,,,,,,,,,,,,,,,,,,,,,,,,,,,,,,,,,,,,,,,,,,,,,,,,,,,,,,,,,,,,,,,,,,,,,,,,,,,,,,,,,,,,,,,,,,,,,,,,,,,,,,,,,,,,,,,,,,,,,,,,,,,,,,,,,,,,,,,,,,,,,57.64443579199724,None,space,3.07923878901056,57.64443579199724,None,,,,,,,,,,,,,,,,4,001,,,2020_Sep_06_2018,reactive_intentional_encoding_looped,3.2.4,61.03029103354074,
images/right.png,j,instruction_images/bug_ladybug.png,instruction_images/button_plastic.png,85,1,1,images/mannequin.jpg,images/julia_roberts_c.jpg,images/freedom_tower_c.jpg,images/dustin_hoffman_a.jpg,object-face,images/julia_roberts_c.jpg,images/newspaper_stack.png,,,,,,,,,,,,,,,,,,,,,,,,,,,,,,,,,,,,,,,,,,,,,,,,,,,,,,,,,,,,,,,,,,,,,0,0,0,0,0,0,0,0,,,,,,,,,,,,,,,,,,,,,,,,,,,,,,,60.75656332698418,None,68.04745176999131,None,,,,,,,,,,,,,,,,,67.25971855400712,None,j,0.7586956380109768,67.25971855400712,None,67.25971855400712,None,67.25971855400712,None,67.25971855400712,None,67.25971855400712,None,,,,,,,63.78163951699389,None,63.78163951699389,None,None,63.78163951699389,None,63.78163951699389,None,63.78163951699389,None,63.78163951699389,None,63.78163951699389,None,4,001,,,2020_Sep_06_2018,reactive_intentional_encoding_looped,3.2.4,61.03029103354074,
images/left.png,f,instruction_images/alpaca_fo.jpg,instruction_images/cake_cheese.png,75,1,1,images/mannequin.jpg,images/julia_roberts_c.jpg,images/freedom_tower_c.jpg,images/dustin_hoffman_a.jpg,object-face,images/julia_roberts_c.jpg,images/newspaper_stack.png,,,,,,,,,,,,,,,,,,,,,,,,,,,,,,,,,,,,,,,,,,,,,,,,,,,,,,,,,,,,,,,,,,,,,0,0,0,0,0,1,1,2,,,,,,,,,,,,,,,,,,,,,,,,,,,,,,,,,68.97456984900055,None,,,,,,,,,,,,,,,,,68.56398099500802,None,f,0.37164192099589854,68.56398099500802,None,68.56398099500802,None,68.56398099500802,None,68.56398099500802,None,68.56398099500802,None,,,,,,,,,,,,,,,,,,,,,,4,001,,,2020_Sep_06_2018,reactive_intentional_encoding_looped,3.2.4,61.03029103354074,
images/left.png,f,instruction_images/antlers.jpg,instruction_images/oldBook.png,95,1,1,images/mannequin.jpg,images/julia_roberts_c.jpg,images/freedom_tower_c.jpg,images/dustin_hoffman_a.jpg,object-face,images/julia_roberts_c.jpg,images/newspaper_stack.png,,,,,,,,,,,,,,,,,,,,,,,,,,,,,,,,,,,,,,,,,,,,,,,,,,,,,,,,,,,,,,,,,,,,,0,0,0,0,0,2,2,1,,,,,,,,,,,,,,,,,,,,,,,,,,,,,,,,,69.83226408198243,None,,,,,,,,,,,,,,,,,69.47490402800031,None,f,0.32863074299530126,69.47490402800031,None,69.47490402800031,None,69.47490402800031,None,69.47490402800031,None,69.47490402800031,None,,,,,,,,,,,,,,,,,,,,,,4,001,,,2020_Sep_06_2018,reactive_intentional_encoding_looped,3.2.4,61.03029103354074,
images/right.png,j,instruction_images/bug_ladybug.png,instruction_images/button_plastic.png,85,1,1,images/mannequin.jpg,images/julia_roberts_c.jpg,images/freedom_tower_c.jpg,images/dustin_hoffman_a.jpg,object-face,images/julia_roberts_c.jpg,images/newspaper_stack.png,,,,,,,,,,,,,,,,,,,,,,,,,,,,,,,,,,,,,,,,,,,,,,,,,,,,,,,,,,,,,,,,,,,,,0,0,0,0,1,0,3,0,,,,,,,,,,,,,,,,,,,,,,,,,,,,,,,,,70.63254209698061,None,,,,,,,,,,,,,,,,,70.34580408799229,None,j,0.25469329397310503,70.34580408799229,None,70.34580408799229,None,70.34580408799229,None,70.34580408799229,None,70.34580408799229,None,,,,,,,,,,,,,,,,,,,,,,4,001,,,2020_Sep_06_2018,reactive_intentional_encoding_looped,3.2.4,61.03029103354074,
images/left.png,f,instruction_images/antlers.jpg,instruction_images/oldBook.png,95,1,1,images/mannequin.jpg,images/julia_roberts_c.jpg,images/freedom_tower_c.jpg,images/dustin_hoffman_a.jpg,object-face,images/julia_roberts_c.jpg,images/newspaper_stack.png,,,,,,,,,,,,,,,,,,,,,,,,,,,,,,,,,,,,,,,,,,,,,,,,,,,,,,,,,,,,,,,,,,,,,0,0,0,0,1,1,4,1,,,,,,,,,,,,,,,,,,,,,,,,,,,,,,,,,71.5060011909809,None,,,,,,,,,,,,,,,,,71.14587081898935,None,f,0.3173513679939788,71.14587081898935,None,71.14587081898935,None,71.14587081898935,None,71.14587081898935,None,71.14587081898935,None,,,,,,,,,,,,,,,,,,,,,,4,001,,,2020_Sep_06_2018,reactive_intentional_encoding_looped,3.2.4,61.03029103354074,
images/left.png,f,instruction_images/alpaca_fo.jpg,instruction_images/cake_cheese.png,75,1,1,images/mannequin.jpg,images/julia_roberts_c.jpg,images/freedom_tower_c.jpg,images/dustin_hoffman_a.jpg,object-face,images/julia_roberts_c.jpg,images/newspaper_stack.png,,,,,,,,,,,,,,,,,,,,,,,,,,,,,,,,,,,,,,,,,,,,,,,,,,,,,,,,,,,,,,,,,,,,,0,0,0,0,1,2,5,2,,,,,,,,,,,,,,,,,,,,,,,,,,,,,,,,,72.32753216300625,None,,,,,,,,,,,,,,,,,72.00686999599566,None,f,0.2866006330004893,72.00686999599566,None,72.00686999599566,None,72.00686999599566,None,72.00686999599566,None,72.00686999599566,None,,,,,,,,,,,,,,,,,,,,,,4,001,,,2020_Sep_06_2018,reactive_intentional_encoding_looped,3.2.4,61.03029103354074,
images/left.png,f,instruction_images/antlers.jpg,instruction_images/oldBook.png,95,1,1,images/mannequin.jpg,images/julia_roberts_c.jpg,images/freedom_tower_c.jpg,images/dustin_hoffman_a.jpg,object-face,images/julia_roberts_c.jpg,images/newspaper_stack.png,,,,,,,,,,,,,,,,,,,,,,,,,,,,,,,,,,,,,,,,,,,,,,,,,,,,,,,,,,,,,,,,,,,,,0,0,0,0,2,0,6,1,,,,,,,,,,,,,,,,,,,,,,,,,,,,,,,,,73.15610556100728,None,,,,,,,,,,,,,,,,,72.82893224598956,None,f,0.29538429001695476,72.82893224598956,None,72.82893224598956,None,72.82893224598956,None,72.82893224598956,None,72.82893224598956,None,,,,,,,,,,,,,,,,,,,,,,4,001,,,2020_Sep_06_2018,reactive_intentional_encoding_looped,3.2.4,61.03029103354074,
images/right.png,j,instruction_images/bug_ladybug.png,instruction_images/button_plastic.png,85,1,1,images/mannequin.jpg,images/julia_roberts_c.jpg,images/freedom_tower_c.jpg,images/dustin_hoffman_a.jpg,object-face,images/julia_roberts_c.jpg,images/newspaper_stack.png,,,,,,,,,,,,,,,,,,,,,,,,,,,,,,,,,,,,,,,,,,,,,,,,,,,,,,,,,,,,,,,,,,,,,0,0,0,0,2,1,7,0,,,,,,,,,,,,,,,,,,,,,,,,,,,,,,,,,73.929111748992,None,,,,,,,,,,,,,,,,,73.65670978400158,None,f,0.23444729301263578,73.65670978400158,None,73.65670978400158,None,73.65670978400158,None,73.65670978400158,None,73.65670978400158,None,,,,,,,,,,,,,,,,,,,,,,4,001,,,2020_Sep_06_2018,reactive_intentional_encoding_looped,3.2.4,61.03029103354074,
images/left.png,f,instruction_images/alpaca_fo.jpg,instruction_images/cake_cheese.png,75,1,1,images/mannequin.jpg,images/julia_roberts_c.jpg,images/freedom_tower_c.jpg,images/dustin_hoffman_a.jpg,object-face,images/julia_roberts_c.jpg,images/newspaper_stack.png,,,,,,,,,,,,,,,,,,,,,,,,,,,,,,,,,,,,,,,,,,,,,,,,,,,,,,,,,,,,,,,,,,,,,0,0,0,0,2,2,8,2,,,,,,,,,,,,,,,,,,,,,,,,,,,,,,,,,74.68811376398662,None,,,,,,,,,,,,,,,,,74.43081362600788,None,f,0.2232787319808267,74.43081362600788,None,74.43081362600788,None,74.43081362600788,None,74.43081362600788,None,74.43081362600788,None,,,,,,,,,,,,,,,,,,,,,,4,001,,,2020_Sep_06_2018,reactive_intentional_encoding_looped,3.2.4,61.03029103354074,
images/left.png,f,instruction_images/antlers.jpg,instruction_images/oldBook.png,95,1,1,images/mannequin.jpg,images/julia_roberts_c.jpg,images/freedom_tower_c.jpg,images/dustin_hoffman_a.jpg,object-face,images/julia_roberts_c.jpg,images/newspaper_stack.png,,,,,,,,,,,,,,,,,,,,,,,,,,,,,,,,,,,,,,,,,,,,,,,,,,,,,,,,,,,,,,,,,,,,,0,0,0,0,3,0,9,1,,,,,,,,,,,,,,,,,,,,,,,,,,,,,,,,,75.4769597289851,None,,,,,,,,,,,,,,,,,75.18953454997973,None,f,0.25155661400640383,75.18953454997973,None,75.18953454997973,None,75.18953454997973,None,75.18953454997973,None,75.18953454997973,None,,,,,,,,,,,,,,,,,,,,,,4,001,,,2020_Sep_06_2018,reactive_intentional_encoding_looped,3.2.4,61.03029103354074,
images/left.png,f,instruction_images/alpaca_fo.jpg,instruction_images/cake_cheese.png,75,1,1,images/mannequin.jpg,images/julia_roberts_c.jpg,images/freedom_tower_c.jpg,images/dustin_hoffman_a.jpg,object-face,images/julia_roberts_c.jpg,images/newspaper_stack.png,,,,,,,,,,,,,,,,,,,,,,,,,,,,,,,,,,,,,,,,,,,,,,,,,,,,,,,,,,,,,,,,,,,,,0,0,0,0,3,1,10,2,,,,,,,,,,,,,,,,,,,,,,,,,,,,,,,,,76.47686627399526,None,,,,,,,,,,,,,,,,,75.98936302398215,None,f,0.45168627399834804,75.98936302398215,None,75.98936302398215,None,75.98936302398215,None,75.98936302398215,None,75.98936302398215,None,,,,,,,,,,,,,,,,,,,,,,4,001,,,2020_Sep_06_2018,reactive_intentional_encoding_looped,3.2.4,61.03029103354074,
images/right.png,j,instruction_images/bug_ladybug.png,instruction_images/button_plastic.png,85,1,1,images/mannequin.jpg,images/julia_roberts_c.jpg,images/freedom_tower_c.jpg,images/dustin_hoffman_a.jpg,object-face,images/julia_roberts_c.jpg,images/newspaper_stack.png,,,,,,,,,,,,,,,,,,,,,,,,,,,,,,,,,,,,,,,,,,,,,,,,,,,,,,,,,,,,,,,,,,,,,0,0,0,0,3,2,11,0,,,,,,,,,,,,,,,,,,,,,,,,,,,,,,,,,77.44355540600372,None,,,,,,,,,,,,,,,,,76.99280254400219,None,j,0.4142474999825936,76.99280254400219,None,76.99280254400219,None,76.99280254400219,None,76.99280254400219,None,76.99280254400219,None,,,,,,,,,,,,,,,,,,,,,,4,001,,,2020_Sep_06_2018,reactive_intentional_encoding_looped,3.2.4,61.03029103354074,
images/left.png,f,instruction_images/antlers.jpg,instruction_images/oldBook.png,95,1,1,images/mannequin.jpg,images/julia_roberts_c.jpg,images/freedom_tower_c.jpg,images/dustin_hoffman_a.jpg,object-face,images/julia_roberts_c.jpg,images/newspaper_stack.png,,,,,,,,,,,,,,,,,,,,,,,,,,,,,,,,,,,,,,,,,,,,,,,,,,,,,,,,,,,,,,,,,,,,,0,0,0,0,4,0,12,1,,,,,,,,,,,,,,,,,,,,,,,,,,,,,,,,,78.22920494998107,None,,,,,,,,,,,,,,,,,77.95623869399424,None,f,0.240745266986778,77.95623869399424,None,77.95623869399424,None,77.95623869399424,None,77.95623869399424,None,77.95623869399424,None,,,,,,,,,,,,,,,,,,,,,,4,001,,,2020_Sep_06_2018,reactive_intentional_encoding_looped,3.2.4,61.03029103354074,
images/left.png,f,instruction_images/alpaca_fo.jpg,instruction_images/cake_cheese.png,75,1,1,images/mannequin.jpg,images/julia_roberts_c.jpg,images/freedom_tower_c.jpg,images/dustin_hoffman_a.jpg,object-face,images/julia_roberts_c.jpg,images/newspaper_stack.png,,,,,,,,,,,,,,,,,,,,,,,,,,,,,,,,,,,,,,,,,,,,,,,,,,,,,,,,,,,,,,,,,,,,,0,0,0,0,4,1,13,2,,,,,,,,,,,,,,,,,,,,,,,,,,,,,,,,,79.13835555300466,None,,,,,,,,,,,,,,,,,78.72836324200034,None,f,0.36859476601239294,78.72836324200034,None,78.72836324200034,None,78.72836324200034,None,78.72836324200034,None,78.72836324200034,None,,,,,,,,,,,,,,,,,,,,,,4,001,,,2020_Sep_06_2018,reactive_intentional_encoding_looped,3.2.4,61.03029103354074,
images/right.png,j,instruction_images/bug_ladybug.png,instruction_images/button_plastic.png,85,1,1,images/mannequin.jpg,images/julia_roberts_c.jpg,images/freedom_tower_c.jpg,images/dustin_hoffman_a.jpg,object-face,images/julia_roberts_c.jpg,images/newspaper_stack.png,,,,,,,,,,,,,,,,,,,,,,,,,,,,,,,,,,,,,,,,,,,,,,,,,,,,,,,,,,,,,,,,,,,,,0,0,0,0,4,2,14,0,,,,,,,,,,,,,,,,,,,,,,,,,,,,,,,,,79.9263491339807,None,,,,,,,,,,,,,,,,,79.6385405669862,None,f,0.26581786200404167,79.6385405669862,None,79.6385405669862,None,79.6385405669862,None,79.6385405669862,None,79.6385405669862,None,,,,,,,,,,,,,,,,,,,,,,4,001,,,2020_Sep_06_2018,reactive_intentional_encoding_looped,3.2.4,61.03029103354074,
images/right.png,j,instruction_images/bug_ladybug.png,instruction_images/button_plastic.png,85,1,1,images/mannequin.jpg,images/julia_roberts_c.jpg,images/freedom_tower_c.jpg,images/dustin_hoffman_a.jpg,object-face,images/julia_roberts_c.jpg,images/newspaper_stack.png,,,,,,,,,,,,,,,,,,,,,,,,,,,,,,,,,,,,,,,,,,,,,,,,,,,,,,,,,,,,,,,,,,,,,0,0,0,0,5,0,15,0,,,,,,,,,,,,,,,,,,,,,,,,,,,,,,,,,80.74317791400244,None,,,,,,,,,,,,,,,,,80.4392425630067,None,f,0.2787626909848768,80.4392425630067,None,80.4392425630067,None,80.4392425630067,None,80.4392425630067,None,80.4392425630067,None,,,,,,,,,,,,,,,,,,,,,,4,001,,,2020_Sep_06_2018,reactive_intentional_encoding_looped,3.2.4,61.03029103354074,
images/left.png,f,instruction_images/alpaca_fo.jpg,instruction_images/cake_cheese.png,75,1,1,images/mannequin.jpg,images/julia_roberts_c.jpg,images/freedom_tower_c.jpg,images/dustin_hoffman_a.jpg,object-face,images/julia_roberts_c.jpg,images/newspaper_stack.png,,,,,,,,,,,,,,,,,,,,,,,,,,,,,,,,,,,,,,,,,,,,,,,,,,,,,,,,,,,,,,,,,,,,,0,0,0,0,5,1,16,2,,,,,,,,,,,,,,,,,,,,,,,,,,,,,,,,,81.54489802999888,None,,,,,,,,,,,,,,,,,81.25538176798727,None,f,0.26579929201398045,81.25538176798727,None,81.25538176798727,None,81.25538176798727,None,81.25538176798727,None,81.25538176798727,None,,,,,,,,,,,,,,,,,,,,,,4,001,,,2020_Sep_06_2018,reactive_intentional_encoding_looped,3.2.4,61.03029103354074,
images/left.png,f,instruction_images/antlers.jpg,instruction_images/oldBook.png,95,1,1,images/mannequin.jpg,images/julia_roberts_c.jpg,images/freedom_tower_c.jpg,images/dustin_hoffman_a.jpg,object-face,images/julia_roberts_c.jpg,images/newspaper_stack.png,,,,,,,,,,,,,,,,,,,,,,,,,,,,,,,,,,,,,,,,,,,,,,,,,,,,,,,,,,,,,,,,,,,,,0,0,0,0,5,2,17,1,,,,,,,,,,,,,,,,,,,,,,,,,,,,,,,,,82.37140601599822,None,,,,,,,,,,,,,,,,,82.0457402059983,None,f,0.2904023099981714,82.0457402059983,None,82.0457402059983,None,82.0457402059983,None,82.0457402059983,None,82.0457402059983,None,,,,,,,,,,,,,,,,,,,,,,4,001,,,2020_Sep_06_2018,reactive_intentional_encoding_looped,3.2.4,61.03029103354074,
images/left.png,f,instruction_images/alpaca_fo.jpg,instruction_images/cake_cheese.png,75,1,1,images/mannequin.jpg,images/julia_roberts_c.jpg,images/freedom_tower_c.jpg,images/dustin_hoffman_a.jpg,object-face,images/julia_roberts_c.jpg,images/newspaper_stack.png,,,,,,,,,,,,,,,,,,,,,,,,,,,,,,,,,,,,,,,,,,,,,,,,,,,,,,,,,,,,,,,,,,,,,0,0,0,0,6,0,18,2,,,,,,,,,,,,,,,,,,,,,,,,,,,,,,,,,83.22448313698987,None,,,,,,,,,,,,,,,,,82.87155268498464,None,f,0.3172873110161163,82.87155268498464,None,82.87155268498464,None,82.87155268498464,None,82.87155268498464,None,82.87155268498464,None,,,,,,,,,,,,,,,,,,,,,,4,001,,,2020_Sep_06_2018,reactive_intentional_encoding_looped,3.2.4,61.03029103354074,
images/right.png,j,instruction_images/bug_ladybug.png,instruction_images/button_plastic.png,85,1,1,images/mannequin.jpg,images/julia_roberts_c.jpg,images/freedom_tower_c.jpg,images/dustin_hoffman_a.jpg,object-face,images/julia_roberts_c.jpg,images/newspaper_stack.png,,,,,,,,,,,,,,,,,,,,,,,,,,,,,,,,,,,,,,,,,,,,,,,,,,,,,,,,,,,,,,,,,,,,,0,0,0,0,6,1,19,0,,,,,,,,,,,,,,,,,,,,,,,,,,,,,,,,,84.09484273000271,None,,,,,,,,,,,,,,,,,83.73950361000607,None,j,0.32929095899453387,83.73950361000607,None,83.73950361000607,None,83.73950361000607,None,83.73950361000607,None,83.73950361000607,None,,,,,,,,,,,,,,,,,,,,,,4,001,,,2020_Sep_06_2018,reactive_intentional_encoding_looped,3.2.4,61.03029103354074,
images/left.png,f,instruction_images/antlers.jpg,instruction_images/oldBook.png,95,1,1,images/mannequin.jpg,images/julia_roberts_c.jpg,images/freedom_tower_c.jpg,images/dustin_hoffman_a.jpg,object-face,images/julia_roberts_c.jpg,images/newspaper_stack.png,,,,,,,,,,,,,,,,,,,,,,,,,,,,,,,,,,,,,,,,,,,,,,,,,,,,,,,,,,,,,,,,,,,,,0,0,0,0,6,2,20,1,,,,,,,,,,,,,,,,,,,,,,,,,,,,,,,,,84.86661701399134,None,,,,,,,,,,,,,,,,,84.59537090800586,None,f,0.2414484079927206,84.59537090800586,None,84.59537090800586,None,84.59537090800586,None,84.59537090800586,None,84.59537090800586,None,,,,,,,,,,,,,,,,,,,,,,4,001,,,2020_Sep_06_2018,reactive_intentional_encoding_looped,3.2.4,61.03029103354074,
images/left.png,f,instruction_images/alpaca_fo.jpg,instruction_images/cake_cheese.png,75,1,1,images/mannequin.jpg,images/julia_roberts_c.jpg,images/freedom_tower_c.jpg,images/dustin_hoffman_a.jpg,object-face,images/julia_roberts_c.jpg,images/newspaper_stack.png,,,,,,,,,,,,,,,,,,,,,,,,,,,,,,,,,,,,,,,,,,,,,,,,,,,,,,,,,,,,,,,,,,,,,0,0,0,0,7,0,21,2,,,,,,,,,,,,,,,,,,,,,,,,,,,,,,,,,85.68773443900864,None,,,,,,,,,,,,,,,,,85.37766864799778,None,f,0.2811770670232363,85.37766864799778,None,85.37766864799778,None,85.37766864799778,None,85.37766864799778,None,85.37766864799778,None,,,,,,,,,,,,,,,,,,,,,,4,001,,,2020_Sep_06_2018,reactive_intentional_encoding_looped,3.2.4,61.03029103354074,
images/right.png,j,instruction_images/bug_ladybug.png,instruction_images/button_plastic.png,85,1,1,images/mannequin.jpg,images/julia_roberts_c.jpg,images/freedom_tower_c.jpg,images/dustin_hoffman_a.jpg,object-face,images/julia_roberts_c.jpg,images/newspaper_stack.png,,,,,,,,,,,,,,,,,,,,,,,,,,,,,,,,,,,,,,,,,,,,,,,,,,,,,,,,,,,,,,,,,,,,,0,0,0,0,7,1,22,0,,,,,,,,,,,,,,,,,,,,,,,,,,,,,,,,,86.57863384700613,None,,,,,,,,,,,,,,,,,86.18846625598962,None,j,0.35448763699969277,86.18846625598962,None,86.18846625598962,None,86.18846625598962,None,86.18846625598962,None,86.18846625598962,None,,,,,,,,,,,,,,,,,,,,,,4,001,,,2020_Sep_06_2018,reactive_intentional_encoding_looped,3.2.4,61.03029103354074,
images/left.png,f,instruction_images/antlers.jpg,instruction_images/oldBook.png,95,1,1,images/mannequin.jpg,images/julia_roberts_c.jpg,images/freedom_tower_c.jpg,images/dustin_hoffman_a.jpg,object-face,images/julia_roberts_c.jpg,images/newspaper_stack.png,,,,,,,,,,,,,,,,,,,,,,,,,,,,,,,,,,,,,,,,,,,,,,,,,,,,,,,,,,,,,,,,,,,,,0,0,0,0,7,2,23,1,,,,,,,,,,,,,,,,,,,,,,,,,,,,,,,,,87.41704053498688,None,,,,,,,,,,,,,,,,,87.07839330099523,None,f,0.3159160789800808,87.07839330099523,None,87.07839330099523,None,87.07839330099523,None,87.07839330099523,None,87.07839330099523,None,,,,,,,,,,,,,,,,,,,,,,4,001,,,2020_Sep_06_2018,reactive_intentional_encoding_looped,3.2.4,61.03029103354074,
images/left.png,f,instruction_images/antlers.jpg,instruction_images/oldBook.png,95,1,1,images/mannequin.jpg,images/julia_roberts_c.jpg,images/freedom_tower_c.jpg,images/dustin_hoffman_a.jpg,object-face,images/julia_roberts_c.jpg,images/newspaper_stack.png,,,,,,,,,,,,,,,,,,,,,,,,,,,,,,,,,,,,,,,,,,,,,,,,,,,,,,,,,,,,,,,,,,,,,0,0,0,0,8,0,24,1,,,,,,,,,,,,,,,,,,,,,,,,,,,,,,,,,88.22141287699924,None,,,,,,,,,,,,,,,,,87.92881717599812,None,f,0.2508333869918715,87.92881717599812,None,87.92881717599812,None,87.92881717599812,None,87.92881717599812,None,87.92881717599812,None,,,,,,,,,,,,,,,,,,,,,,4,001,,,2020_Sep_06_2018,reactive_intentional_encoding_looped,3.2.4,61.03029103354074,
images/left.png,f,instruction_images/alpaca_fo.jpg,instruction_images/cake_cheese.png,75,1,1,images/mannequin.jpg,images/julia_roberts_c.jpg,images/freedom_tower_c.jpg,images/dustin_hoffman_a.jpg,object-face,images/julia_roberts_c.jpg,images/newspaper_stack.png,,,,,,,,,,,,,,,,,,,,,,,,,,,,,,,,,,,,,,,,,,,,,,,,,,,,,,,,,,,,,,,,,,,,,0,0,0,0,8,1,25,2,,,,,,,,,,,,,,,,,,,,,,,,,,,,,,,,,89.06175808398984,None,,,,,,,,,,,,,,,,,88.72126345700235,None,f,0.3067396469996311,88.72126345700235,None,88.72126345700235,None,88.72126345700235,None,88.72126345700235,None,88.72126345700235,None,,,,,,,,,,,,,,,,,,,,,,4,001,,,2020_Sep_06_2018,reactive_intentional_encoding_looped,3.2.4,61.03029103354074,
images/right.png,j,instruction_images/bug_ladybug.png,instruction_images/button_plastic.png,85,1,1,images/mannequin.jpg,images/julia_roberts_c.jpg,images/freedom_tower_c.jpg,images/dustin_hoffman_a.jpg,object-face,images/julia_roberts_c.jpg,images/newspaper_stack.png,,,,,,,,,,,,,,,,,,,,,,,,,,,,,,,,,,,,,,,,,,,,,,,,,,,,,,,,,,,,,,,,,,,,,0,0,0,0,8,2,26,0,,,,,,,,,,,,,,,,,,,,,,,,,,,,,,,,,89.88704593700822,None,,,,,,,,,,,,,,,,,89.56375130199012,None,f,0.2863347079837695,89.56375130199012,None,89.56375130199012,None,89.56375130199012,None,89.56375130199012,None,89.56375130199012,None,,,,,,,,,,,,,,,,,,,,,,4,001,,,2020_Sep_06_2018,reactive_intentional_encoding_looped,3.2.4,61.03029103354074,
images/right.png,j,instruction_images/bug_ladybug.png,instruction_images/button_plastic.png,85,1,1,images/mannequin.jpg,images/julia_roberts_c.jpg,images/freedom_tower_c.jpg,images/dustin_hoffman_a.jpg,object-face,images/julia_roberts_c.jpg,images/newspaper_stack.png,,,,,,,,,,,,,,,,,,,,,,,,,,,,,,,,,,,,,,,,,,,,,,,,,,,,,,,,,,,,,,,,,,,,,0,0,0,0,9,0,27,0,,,,,,,,,,,,,,,,,,,,,,,,,,,,,,,,,90.59472970699426,None,,,,,,,,,,,,,,,,,90.38800437600003,None,f,0.1826982620113995,90.38800437600003,None,90.38800437600003,None,90.38800437600003,None,90.38800437600003,None,90.38800437600003,None,,,,,,,,,,,,,,,,,,,,,,4,001,,,2020_Sep_06_2018,reactive_intentional_encoding_looped,3.2.4,61.03029103354074,
images/left.png,f,instruction_images/alpaca_fo.jpg,instruction_images/cake_cheese.png,75,1,1,images/mannequin.jpg,images/julia_roberts_c.jpg,images/freedom_tower_c.jpg,images/dustin_hoffman_a.jpg,object-face,images/julia_roberts_c.jpg,images/newspaper_stack.png,,,,,,,,,,,,,,,,,,,,,,,,,,,,,,,,,,,,,,,,,,,,,,,,,,,,,,,,,,,,,,,,,,,,,0,0,0,0,9,1,28,2,,,,,,,,,,,,,,,,,,,,,,,,,,,,,,,,,91.41108120500576,None,,,,,,,,,,,,,,,,,91.1043017799966,None,f,0.28230374699342065,91.1043017799966,None,91.1043017799966,None,91.1043017799966,None,91.1043017799966,None,91.1043017799966,None,,,,,,,,,,,,,,,,,,,,,,4,001,,,2020_Sep_06_2018,reactive_intentional_encoding_looped,3.2.4,61.03029103354074,
images/left.png,f,instruction_images/antlers.jpg,instruction_images/oldBook.png,95,1,1,images/mannequin.jpg,images/julia_roberts_c.jpg,images/freedom_tower_c.jpg,images/dustin_hoffman_a.jpg,object-face,images/julia_roberts_c.jpg,images/newspaper_stack.png,,,,,,,,,,,,,,,,,,,,,,,,,,,,,,,,,,,,,,,,,,,,,,,,,,,,,,,,,,,,,,,,,,,,,0,0,0,0,9,2,29,1,,,,,,,,,,,,,,,,,,,,,,,,,,,,,,,,,92.23732665699208,None,,,,,,,,,,,,,,,,,91.91219157798332,None,f,0.29238928598351777,91.91219157798332,None,91.91219157798332,None,91.91219157798332,None,91.91219157798332,None,91.91219157798332,None,,,,,,,,,,,,,,,,,,,,,,4,001,,,2020_Sep_06_2018,reactive_intentional_encoding_looped,3.2.4,61.03029103354074,
images/left.png,f,instruction_images/alpaca_fo.jpg,instruction_images/cake_cheese.png,75,1,1,images/mannequin.jpg,images/julia_roberts_c.jpg,images/freedom_tower_c.jpg,images/dustin_hoffman_a.jpg,object-face,images/julia_roberts_c.jpg,images/newspaper_stack.png,,,,,,,,,,,,,,,,,,,,,,,,,,,,,,,,,,,,,,,,,,,,,,,,,,,,,,,,,,,,,,,,,,,,,0,0,0,0,10,0,30,2,,,,,,,,,,,,,,,,,,,,,,,,,,,,,,,,,93.06148611099343,None,,,,,,,,,,,,,,,,,92.73768521199236,None,f,0.2858030509960372,92.73768521199236,None,92.73768521199236,None,92.73768521199236,None,92.73768521199236,None,92.73768521199236,None,,,,,,,,,,,,,,,,,,,,,,4,001,,,2020_Sep_06_2018,reactive_intentional_encoding_looped,3.2.4,61.03029103354074,
images/right.png,j,instruction_images/bug_ladybug.png,instruction_images/button_plastic.png,85,1,1,images/mannequin.jpg,images/julia_roberts_c.jpg,images/freedom_tower_c.jpg,images/dustin_hoffman_a.jpg,object-face,images/julia_roberts_c.jpg,images/newspaper_stack.png,,,,,,,,,,,,,,,,,,,,,,,,,,,,,,,,,,,,,,,,,,,,,,,,,,,,,,,,,,,,,,,,,,,,,0,0,0,0,10,1,31,0,,,,,,,,,,,,,,,,,,,,,,,,,,,,,,,,,93.91499874298461,None,,,,,,,,,,,,,,,,,93.56499159100349,None,f,0.3127893140190281,93.56499159100349,None,93.56499159100349,None,93.56499159100349,None,93.56499159100349,None,93.56499159100349,None,,,,,,,,,,,,,,,,,,,,,,4,001,,,2020_Sep_06_2018,reactive_intentional_encoding_looped,3.2.4,61.03029103354074,
images/left.png,f,instruction_images/antlers.jpg,instruction_images/oldBook.png,95,1,1,images/mannequin.jpg,images/julia_roberts_c.jpg,images/freedom_tower_c.jpg,images/dustin_hoffman_a.jpg,object-face,images/julia_roberts_c.jpg,images/newspaper_stack.png,,,,,,,,,,,,,,,,,,,,,,,,,,,,,,,,,,,,,,,,,,,,,,,,,,,,,,,,,,,,,,,,,,,,,0,0,0,0,10,2,32,1,,,,,,,,,,,,,,,,,,,,,,,,,,,,,,,,,94.86583923298167,None,,,,,,,,,,,,,,,,,94.42850034599542,None,f,0.405062147998251,94.42850034599542,None,94.42850034599542,None,94.42850034599542,None,94.42850034599542,None,94.42850034599542,None,,,,,,,,,,,,,,,,,,,,,,4,001,,,2020_Sep_06_2018,reactive_intentional_encoding_looped,3.2.4,61.03029103354074,
images/right.png,j,instruction_images/bug_ladybug.png,instruction_images/button_plastic.png,85,1,1,images/mannequin.jpg,images/julia_roberts_c.jpg,images/freedom_tower_c.jpg,images/dustin_hoffman_a.jpg,object-face,images/julia_roberts_c.jpg,images/newspaper_stack.png,,,,,,,,,,,,,,,,,,,,,,,,,,,,,,,,,,,,,,,,,,,,,,,,,,,,,,,,,,,,,,,,,,,,,0,0,0,0,11,0,33,0,,,,,,,,,,,,,,,,,,,,,,,,,,,,,,,,,95.68673814399517,None,,,,,,,,,,,,,,,,,95.3786423089914,None,f,0.2829450419812929,95.3786423089914,None,95.3786423089914,None,95.3786423089914,None,95.3786423089914,None,95.3786423089914,None,,,,,,,,,,,,,,,,,,,,,,4,001,,,2020_Sep_06_2018,reactive_intentional_encoding_looped,3.2.4,61.03029103354074,
images/left.png,f,instruction_images/antlers.jpg,instruction_images/oldBook.png,95,1,1,images/mannequin.jpg,images/julia_roberts_c.jpg,images/freedom_tower_c.jpg,images/dustin_hoffman_a.jpg,object-face,images/julia_roberts_c.jpg,images/newspaper_stack.png,,,,,,,,,,,,,,,,,,,,,,,,,,,,,,,,,,,,,,,,,,,,,,,,,,,,,,,,,,,,,,,,,,,,,0,0,0,0,11,1,34,1,,,,,,,,,,,,,,,,,,,,,,,,,,,,,,,,,96.44580671799486,None,,,,,,,,,,,,,,,,,96.18687159797992,None,f,0.230496685981052,96.18687159797992,None,96.18687159797992,None,96.18687159797992,None,96.18687159797992,None,96.18687159797992,None,,,,,,,,,,,,,,,,,,,,,,4,001,,,2020_Sep_06_2018,reactive_intentional_encoding_looped,3.2.4,61.03029103354074,
images/left.png,f,instruction_images/alpaca_fo.jpg,instruction_images/cake_cheese.png,75,1,1,images/mannequin.jpg,images/julia_roberts_c.jpg,images/freedom_tower_c.jpg,images/dustin_hoffman_a.jpg,object-face,images/julia_roberts_c.jpg,images/newspaper_stack.png,,,,,,,,,,,,,,,,,,,,,,,,,,,,,,,,,,,,,,,,,,,,,,,,,,,,,,,,,,,,,,,,,,,,,0,0,0,0,11,2,35,2,,,,,,,,,,,,,,,,,,,,,,,,,,,,,,,,,97.40384099198855,None,,,,,,,,,,,,,,,,,96.9464224439871,None,f,0.42296391099807806,96.9464224439871,None,96.9464224439871,None,96.9464224439871,None,96.9464224439871,None,96.9464224439871,None,,,,,,,,,,,,,,,,,,,,,,4,001,,,2020_Sep_06_2018,reactive_intentional_encoding_looped,3.2.4,61.03029103354074,
images/left.png,f,instruction_images/antlers.jpg,instruction_images/oldBook.png,95,1,1,images/mannequin.jpg,images/julia_roberts_c.jpg,images/freedom_tower_c.jpg,images/dustin_hoffman_a.jpg,object-face,images/julia_roberts_c.jpg,images/newspaper_stack.png,,,,,,,,,,,,,,,,,,,,,,,,,,,,,,,,,,,,,,,,,,,,,,,,,,,,,,,,,,,,,,,,,,,,,0,0,0,0,12,0,36,1,,,,,,,,,,,,,,,,,,,,,,,,,,,,,,,,,98.47802948500612,None,,,,,,,,,,,,,,,,,97.9053426850005,None,f,0.5329693609965034,97.9053426850005,None,97.9053426850005,None,97.9053426850005,None,97.9053426850005,None,97.9053426850005,None,,,,,,,,,,,,,,,,,,,,,,4,001,,,2020_Sep_06_2018,reactive_intentional_encoding_looped,3.2.4,61.03029103354074,
images/left.png,f,instruction_images/alpaca_fo.jpg,instruction_images/cake_cheese.png,75,1,1,images/mannequin.jpg,images/julia_roberts_c.jpg,images/freedom_tower_c.jpg,images/dustin_hoffman_a.jpg,object-face,images/julia_roberts_c.jpg,images/newspaper_stack.png,,,,,,,,,,,,,,,,,,,,,,,,,,,,,,,,,,,,,,,,,,,,,,,,,,,,,,,,,,,,,,,,,,,,,0,0,0,0,12,1,37,2,,,,,,,,,,,,,,,,,,,,,,,,,,,,,,,,,99.35325032798573,None,,,,,,,,,,,,,,,,,98.97878861398203,None,f,0.34561353499884717,98.97878861398203,None,98.97878861398203,None,98.97878861398203,None,98.97878861398203,None,98.97878861398203,None,,,,,,,,,,,,,,,,,,,,,,4,001,,,2020_Sep_06_2018,reactive_intentional_encoding_looped,3.2.4,61.03029103354074,
images/right.png,j,instruction_images/bug_ladybug.png,instruction_images/button_plastic.png,85,1,1,images/mannequin.jpg,images/julia_roberts_c.jpg,images/freedom_tower_c.jpg,images/dustin_hoffman_a.jpg,object-face,images/julia_roberts_c.jpg,images/newspaper_stack.png,,,,,,,,,,,,,,,,,,,,,,,,,,,,,,,,,,,,,,,,,,,,,,,,,,,,,,,,,,,,,,,,,,,,,0,0,0,0,12,2,38,0,,,,,,,,,,,,,,,,,,,,,,,,,,,,,,,,,100.35263643699,None,,,,,,,,,,,,,,,,,99.86175436800113,None,j,0.4654884900082834,99.86175436800113,None,99.86175436800113,None,99.86175436800113,None,99.86175436800113,None,99.86175436800113,None,,,,,,,,,,,,,,,,,,,,,,4,001,,,2020_Sep_06_2018,reactive_intentional_encoding_looped,3.2.4,61.03029103354074,
images/right.png,j,instruction_images/bug_ladybug.png,instruction_images/button_plastic.png,85,1,1,images/mannequin.jpg,images/julia_roberts_c.jpg,images/freedom_tower_c.jpg,images/dustin_hoffman_a.jpg,object-face,images/julia_roberts_c.jpg,images/newspaper_stack.png,,,,,,,,,,,,,,,,,,,,,,,,,,,,,,,,,,,,,,,,,,,,,,,,,,,,,,,,,,,,,,,,,,,,,0,0,0,0,13,0,39,0,,,,,,,,,,,,,,,,,,,,,,,,,,,,,,,,,101.2524948589853,None,,,,,,,,,,,,,,,,,100.86182968199137,None,j,0.36247073399135843,100.86182968199137,None,100.86182968199137,None,100.86182968199137,None,100.86182968199137,None,100.86182968199137,None,,,,,,,,,,,,,,,,,,,,,,4,001,,,2020_Sep_06_2018,reactive_intentional_encoding_looped,3.2.4,61.03029103354074,
images/left.png,f,instruction_images/antlers.jpg,instruction_images/oldBook.png,95,1,1,images/mannequin.jpg,images/julia_roberts_c.jpg,images/freedom_tower_c.jpg,images/dustin_hoffman_a.jpg,object-face,images/julia_roberts_c.jpg,images/newspaper_stack.png,,,,,,,,,,,,,,,,,,,,,,,,,,,,,,,,,,,,,,,,,,,,,,,,,,,,,,,,,,,,,,,,,,,,,0,0,0,0,13,1,40,1,,,,,,,,,,,,,,,,,,,,,,,,,,,,,,,,,102.13552674400853,None,,,,,,,,,,,,,,,,,101.76104949999717,None,j,0.3351256840105634,101.76104949999717,None,101.76104949999717,None,101.76104949999717,None,101.76104949999717,None,101.76104949999717,None,,,,,,,,,,,,,,,,,,,,,,4,001,,,2020_Sep_06_2018,reactive_intentional_encoding_looped,3.2.4,61.03029103354074,
images/left.png,f,instruction_images/alpaca_fo.jpg,instruction_images/cake_cheese.png,75,1,1,images/mannequin.jpg,images/julia_roberts_c.jpg,images/freedom_tower_c.jpg,images/dustin_hoffman_a.jpg,object-face,images/julia_roberts_c.jpg,images/newspaper_stack.png,,,,,,,,,,,,,,,,,,,,,,,,,,,,,,,,,,,,,,,,,,,,,,,,,,,,,,,,,,,,,,,,,,,,,0,0,0,0,13,2,41,2,,,,,,,,,,,,,,,,,,,,,,,,,,,,,,,,,103.13612462900346,None,,,,,,,,,,,,,,,,,102.64500270198914,None,f,0.4651639199873898,102.64500270198914,None,102.64500270198914,None,102.64500270198914,None,102.64500270198914,None,102.64500270198914,None,,,,,,,,,,,,,,,,,,,,,,4,001,,,2020_Sep_06_2018,reactive_intentional_encoding_looped,3.2.4,61.03029103354074,
images/left.png,f,instruction_images/alpaca_fo.jpg,instruction_images/cake_cheese.png,75,1,1,images/mannequin.jpg,images/julia_roberts_c.jpg,images/freedom_tower_c.jpg,images/dustin_hoffman_a.jpg,object-face,images/julia_roberts_c.jpg,images/newspaper_stack.png,,,,,,,,,,,,,,,,,,,,,,,,,,,,,,,,,,,,,,,,,,,,,,,,,,,,,,,,,,,,,,,,,,,,,0,0,0,0,14,0,42,2,,,,,,,,,,,,,,,,,,,,,,,,,,,,,,,,,103.9526319289871,None,,,,,,,,,,,,,,,,,103.64520156700746,None,f,0.27333580699632876,103.64520156700746,None,103.64520156700746,None,103.64520156700746,None,103.64520156700746,None,103.64520156700746,None,,,,,,,,,,,,,,,,,,,,,,4,001,,,2020_Sep_06_2018,reactive_intentional_encoding_looped,3.2.4,61.03029103354074,
images/right.png,j,instruction_images/bug_ladybug.png,instruction_images/button_plastic.png,85,1,1,images/mannequin.jpg,images/julia_roberts_c.jpg,images/freedom_tower_c.jpg,images/dustin_hoffman_a.jpg,object-face,images/julia_roberts_c.jpg,images/newspaper_stack.png,,,,,,,,,,,,,,,,,,,,,,,,,,,,,,,,,,,,,,,,,,,,,,,,,,,,,,,,,,,,,,,,,,,,,0,0,0,0,14,1,43,0,,,,,,,,,,,,,,,,,,,,,,,,,,,,,,,,,104.90161886598798,None,,,,,,,,,,,,,,,,,104.46232656799839,None,j,0.40312149800593033,104.46232656799839,None,104.46232656799839,None,104.46232656799839,None,104.46232656799839,None,104.46232656799839,None,,,,,,,,,,,,,,,,,,,,,,4,001,,,2020_Sep_06_2018,reactive_intentional_encoding_looped,3.2.4,61.03029103354074,
images/left.png,f,instruction_images/antlers.jpg,instruction_images/oldBook.png,95,1,1,images/mannequin.jpg,images/julia_roberts_c.jpg,images/freedom_tower_c.jpg,images/dustin_hoffman_a.jpg,object-face,images/julia_roberts_c.jpg,images/newspaper_stack.png,,,,,,,,,,,,,,,,,,,,,,,,,,,,,,,,,,,,,,,,,,,,,,,,,,,,,,,,,,,,,,,,,,,,,0,0,0,0,14,2,44,1,,,,,,,,,,,,,,,,,,,,,,,,,,,,,,,,,105.81580911399215,None,,,,,,,,,,,,,,,,,105.41183472500416,None,f,0.37350368799525313,105.41183472500416,None,105.41183472500416,None,105.41183472500416,None,105.41183472500416,None,105.41183472500416,None,,,,,,,,,,,,,,,,,,,,,,4,001,,,2020_Sep_06_2018,reactive_intentional_encoding_looped,3.2.4,61.03029103354074,
images/left.png,f,instruction_images/alpaca_fo.jpg,instruction_images/cake_cheese.png,75,1,1,images/mannequin.jpg,images/julia_roberts_c.jpg,images/freedom_tower_c.jpg,images/dustin_hoffman_a.jpg,object-face,images/julia_roberts_c.jpg,images/newspaper_stack.png,,,,,,,,,,,,,,,,,,,,,,,,,,,,,,,,,,,,,,,,,,,,,,,,,,,,,,,,,,,,,,,,,,,,,0,0,0,0,15,0,45,2,,,,,,,,,,,,,,,,,,,,,,,,,,,,,,,,,106.8017856439983,None,,,,,,,,,,,,,,,,,106.32834451898816,None,f,0.43988952101790346,106.32834451898816,None,106.32834451898816,None,106.32834451898816,None,106.32834451898816,None,106.32834451898816,None,,,,,,,,,,,,,,,,,,,,,,4,001,,,2020_Sep_06_2018,reactive_intentional_encoding_looped,3.2.4,61.03029103354074,
images/right.png,j,instruction_images/bug_ladybug.png,instruction_images/button_plastic.png,85,1,1,images/mannequin.jpg,images/julia_roberts_c.jpg,images/freedom_tower_c.jpg,images/dustin_hoffman_a.jpg,object-face,images/julia_roberts_c.jpg,images/newspaper_stack.png,,,,,,,,,,,,,,,,,,,,,,,,,,,,,,,,,,,,,,,,,,,,,,,,,,,,,,,,,,,,,,,,,,,,,0,0,0,0,15,1,46,0,,,,,,,,,,,,,,,,,,,,,,,,,,,,,,,,,107.7022194909805,None,,,,,,,,,,,,,,,,,107.31197680000332,None,j,0.35439556298661046,107.31197680000332,None,107.31197680000332,None,107.31197680000332,None,107.31197680000332,None,107.31197680000332,None,,,,,,,,,,,,,,,,,,,,,,4,001,,,2020_Sep_06_2018,reactive_intentional_encoding_looped,3.2.4,61.03029103354074,
images/left.png,f,instruction_images/antlers.jpg,instruction_images/oldBook.png,95,1,1,images/mannequin.jpg,images/julia_roberts_c.jpg,images/freedom_tower_c.jpg,images/dustin_hoffman_a.jpg,object-face,images/julia_roberts_c.jpg,images/newspaper_stack.png,,,,,,,,,,,,,,,,,,,,,,,,,,,,,,,,,,,,,,,,,,,,,,,,,,,,,,,,,,,,,,,,,,,,,0,0,0,0,15,2,47,1,,,,,,,,,,,,,,,,,,,,,,,,,,,,,,,,,108.57777098499355,None,,,,,,,,,,,,,,,,,108.21371733499109,None,f,0.29225471400422975,108.21371733499109,None,108.21371733499109,None,108.21371733499109,None,108.21371733499109,None,108.21371733499109,None,,,,,,,,,,,,,,,,,,,,,,4,001,,,2020_Sep_06_2018,reactive_intentional_encoding_looped,3.2.4,61.03029103354074,
images/left.png,f,instruction_images/antlers.jpg,instruction_images/oldBook.png,95,1,1,images/mannequin.jpg,images/julia_roberts_c.jpg,images/freedom_tower_c.jpg,images/dustin_hoffman_a.jpg,object-face,images/julia_roberts_c.jpg,images/newspaper_stack.png,,,,,,,,,,,,,,,,,,,,,,,,,,,,,,,,,,,,,,,,,,,,,,,,,,,,,,,,,,,,,,,,,,,,,0,0,0,0,16,0,48,1,,,,,,,,,,,,,,,,,,,,,,,,,,,,,,,,,109.43227621598635,None,,,,,,,,,,,,,,,,,109.0819595750072,None,f,0.3173565529868938,109.0819595750072,None,109.0819595750072,None,109.0819595750072,None,109.0819595750072,None,109.0819595750072,None,,,,,,,,,,,,,,,,,,,,,,4,001,,,2020_Sep_06_2018,reactive_intentional_encoding_looped,3.2.4,61.03029103354074,
images/left.png,f,instruction_images/alpaca_fo.jpg,instruction_images/cake_cheese.png,75,1,1,images/mannequin.jpg,images/julia_roberts_c.jpg,images/freedom_tower_c.jpg,images/dustin_hoffman_a.jpg,object-face,images/julia_roberts_c.jpg,images/newspaper_stack.png,,,,,,,,,,,,,,,,,,,,,,,,,,,,,,,,,,,,,,,,,,,,,,,,,,,,,,,,,,,,,,,,,,,,,0,0,0,0,16,1,49,2,,,,,,,,,,,,,,,,,,,,,,,,,,,,,,,,,110.43544326498522,None,,,,,,,,,,,,,,,,,109.94452863800689,None,f,0.4547977659967728,109.94452863800689,None,109.94452863800689,None,109.94452863800689,None,109.94452863800689,None,109.94452863800689,None,,,,,,,,,,,,,,,,,,,,,,4,001,,,2020_Sep_06_2018,reactive_intentional_encoding_looped,3.2.4,61.03029103354074,
images/right.png,j,instruction_images/bug_ladybug.png,instruction_images/button_plastic.png,85,1,1,images/mannequin.jpg,images/julia_roberts_c.jpg,images/freedom_tower_c.jpg,images/dustin_hoffman_a.jpg,object-face,images/julia_roberts_c.jpg,images/newspaper_stack.png,,,,,,,,,,,,,,,,,,,,,,,,,,,,,,,,,,,,,,,,,,,,,,,,,,,,,,,,,,,,,,,,,,,,,0,0,0,0,16,2,50,0,,,,,,,,,,,,,,,,,,,,,,,,,,,,,,,,,111.38513412498287,None,,,,,,,,,,,,,,,,,110.94483596400823,None,j,0.4019981409946922,110.94483596400823,None,110.94483596400823,None,110.94483596400823,None,110.94483596400823,None,110.94483596400823,None,,,,,,,,,,,,,,,,,,,,,,4,001,,,2020_Sep_06_2018,reactive_intentional_encoding_looped,3.2.4,61.03029103354074,
images/right.png,j,instruction_images/bug_ladybug.png,instruction_images/button_plastic.png,85,1,1,images/mannequin.jpg,images/julia_roberts_c.jpg,images/freedom_tower_c.jpg,images/dustin_hoffman_a.jpg,object-face,images/julia_roberts_c.jpg,images/newspaper_stack.png,,,,,,,,,,,,,,,,,,,,,,,,,,,,,,,,,,,,,,,,,,,,,,,,,,,,,,,,,,,,,,,,,,,,,0,0,0,0,17,0,51,0,,,,,,,,,,,,,,,,,,,,,,,,,,,,,,,,,112.43536032599513,None,,,,,,,,,,,,,,,,,111.89498954999726,None,j,0.5160853780107573,111.89498954999726,None,111.89498954999726,None,111.89498954999726,None,111.89498954999726,None,111.89498954999726,None,,,,,,,,,,,,,,,,,,,,,,4,001,,,2020_Sep_06_2018,reactive_intentional_encoding_looped,3.2.4,61.03029103354074,
images/left.png,f,instruction_images/alpaca_fo.jpg,instruction_images/cake_cheese.png,75,1,1,images/mannequin.jpg,images/julia_roberts_c.jpg,images/freedom_tower_c.jpg,images/dustin_hoffman_a.jpg,object-face,images/julia_roberts_c.jpg,images/newspaper_stack.png,,,,,,,,,,,,,,,,,,,,,,,,,,,,,,,,,,,,,,,,,,,,,,,,,,,,,,,,,,,,,,,,,,,,,0,0,0,0,17,1,52,2,,,,,,,,,,,,,,,,,,,,,,,,,,,,,,,,,113.29920849498012,None,,,,,,,,,,,,,,,,,112.9448971170059,None,f,0.32595078498707153,112.9448971170059,None,112.9448971170059,None,112.9448971170059,None,112.9448971170059,None,112.9448971170059,None,,,,,,,,,,,,,,,,,,,,,,4,001,,,2020_Sep_06_2018,reactive_intentional_encoding_looped,3.2.4,61.03029103354074,
images/left.png,f,instruction_images/antlers.jpg,instruction_images/oldBook.png,95,1,1,images/mannequin.jpg,images/julia_roberts_c.jpg,images/freedom_tower_c.jpg,images/dustin_hoffman_a.jpg,object-face,images/julia_roberts_c.jpg,images/newspaper_stack.png,,,,,,,,,,,,,,,,,,,,,,,,,,,,,,,,,,,,,,,,,,,,,,,,,,,,,,,,,,,,,,,,,,,,,0,0,0,0,17,2,53,1,,,,,,,,,,,,,,,,,,,,,,,,,,,,,,,,,114.13465352298226,None,,,,,,,,,,,,,,,,,113.81205875100568,None,f,0.2957750440109521,113.81205875100568,None,113.81205875100568,None,113.81205875100568,None,113.81205875100568,None,113.81205875100568,None,,,,,,,,,,,,,,,,,,,,,,4,001,,,2020_Sep_06_2018,reactive_intentional_encoding_looped,3.2.4,61.03029103354074,
images/right.png,j,instruction_images/bug_ladybug.png,instruction_images/button_plastic.png,85,1,1,images/mannequin.jpg,images/julia_roberts_c.jpg,images/freedom_tower_c.jpg,images/dustin_hoffman_a.jpg,object-face,images/julia_roberts_c.jpg,images/newspaper_stack.png,,,,,,,,,,,,,,,,,,,,,,,,,,,,,,,,,,,,,,,,,,,,,,,,,,,,,,,,,,,,,,,,,,,,,0,0,0,0,18,0,54,0,,,,,,,,,,,,,,,,,,,,,,,,,,,,,,,,,115.08517379799741,None,,,,,,,,,,,,,,,,,114.64569905499229,None,j,0.41610002602101304,114.64569905499229,None,114.64569905499229,None,114.64569905499229,None,114.64569905499229,None,114.64569905499229,None,,,,,,,,,,,,,,,,,,,,,,4,001,,,2020_Sep_06_2018,reactive_intentional_encoding_looped,3.2.4,61.03029103354074,
images/left.png,f,instruction_images/antlers.jpg,instruction_images/oldBook.png,95,1,1,images/mannequin.jpg,images/julia_roberts_c.jpg,images/freedom_tower_c.jpg,images/dustin_hoffman_a.jpg,object-face,images/julia_roberts_c.jpg,images/newspaper_stack.png,,,,,,,,,,,,,,,,,,,,,,,,,,,,,,,,,,,,,,,,,,,,,,,,,,,,,,,,,,,,,,,,,,,,,0,0,0,0,18,1,55,1,,,,,,,,,,,,,,,,,,,,,,,,,,,,,,,,,116.0185538159858,None,,,,,,,,,,,,,,,,,115.59486846698564,None,f,0.3881703179795295,115.59486846698564,None,115.59486846698564,None,115.59486846698564,None,115.59486846698564,None,115.59486846698564,None,,,,,,,,,,,,,,,,,,,,,,4,001,,,2020_Sep_06_2018,reactive_intentional_encoding_looped,3.2.4,61.03029103354074,
images/left.png,f,instruction_images/alpaca_fo.jpg,instruction_images/cake_cheese.png,75,1,1,images/mannequin.jpg,images/julia_roberts_c.jpg,images/freedom_tower_c.jpg,images/dustin_hoffman_a.jpg,object-face,images/julia_roberts_c.jpg,images/newspaper_stack.png,,,,,,,,,,,,,,,,,,,,,,,,,,,,,,,,,,,,,,,,,,,,,,,,,,,,,,,,,,,,,,,,,,,,,0,0,0,0,18,2,56,2,,,,,,,,,,,,,,,,,,,,,,,,,,,,,,,,,116.85145139700035,None,,,,,,,,,,,,,,,,,116.52794621599605,None,f,0.2989279519824777,116.52794621599605,None,116.52794621599605,None,116.52794621599605,None,116.52794621599605,None,116.52794621599605,None,,,,,,,,,,,,,,,,,,,,,,4,001,,,2020_Sep_06_2018,reactive_intentional_encoding_looped,3.2.4,61.03029103354074,
images/right.png,j,instruction_images/bug_ladybug.png,instruction_images/button_plastic.png,85,1,1,images/mannequin.jpg,images/julia_roberts_c.jpg,images/freedom_tower_c.jpg,images/dustin_hoffman_a.jpg,object-face,images/julia_roberts_c.jpg,images/newspaper_stack.png,,,,,,,,,,,,,,,,,,,,,,,,,,,,,,,,,,,,,,,,,,,,,,,,,,,,,,,,,,,,,,,,,,,,,0,0,0,0,19,0,57,0,,,,,,,,,,,,,,,,,,,,,,,,,,,,,,,,,117.78479353900184,None,,,,,,,,,,,,,,,,,117.36081730699516,None,j,0.38823102600872517,117.36081730699516,None,117.36081730699516,None,117.36081730699516,None,117.36081730699516,None,117.36081730699516,None,,,,,,,,,,,,,,,,,,,,,,4,001,,,2020_Sep_06_2018,reactive_intentional_encoding_looped,3.2.4,61.03029103354074,
images/left.png,f,instruction_images/antlers.jpg,instruction_images/oldBook.png,95,1,1,images/mannequin.jpg,images/julia_roberts_c.jpg,images/freedom_tower_c.jpg,images/dustin_hoffman_a.jpg,object-face,images/julia_roberts_c.jpg,images/newspaper_stack.png,,,,,,,,,,,,,,,,,,,,,,,,,,,,,,,,,,,,,,,,,,,,,,,,,,,,,,,,,,,,,,,,,,,,,0,0,0,0,19,1,58,1,,,,,,,,,,,,,,,,,,,,,,,,,,,,,,,,,118.63461022800766,None,,,,,,,,,,,,,,,,,118.29526023499784,None,f,0.31434932100819424,118.29526023499784,None,118.29526023499784,None,118.29526023499784,None,118.29526023499784,None,118.29526023499784,None,,,,,,,,,,,,,,,,,,,,,,4,001,,,2020_Sep_06_2018,reactive_intentional_encoding_looped,3.2.4,61.03029103354074,
images/left.png,f,instruction_images/alpaca_fo.jpg,instruction_images/cake_cheese.png,75,1,1,images/mannequin.jpg,images/julia_roberts_c.jpg,images/freedom_tower_c.jpg,images/dustin_hoffman_a.jpg,object-face,images/julia_roberts_c.jpg,images/newspaper_stack.png,,,,,,,,,,,,,,,,,,,,,,,,,,,,,,,,,,,,,,,,,,,,,,,,,,,,,,,,,,,,,,,,,,,,,0,0,0,0,19,2,59,2,,,,,,,,,,,,,,,,,,,,,,,,,,,,,,,,,119.48263283999404,None,,,,,,,,,,,,,,,,,119.14495843098848,None,f,0.30884363400400616,119.14495843098848,None,119.14495843098848,None,119.14495843098848,None,119.14495843098848,None,119.14495843098848,None,,,,,,,,,,,,,,,,,,,,,,4,001,,,2020_Sep_06_2018,reactive_intentional_encoding_looped,3.2.4,61.03029103354074,
images/left.png,f,instruction_images/antlers.jpg,instruction_images/oldBook.png,95,1,1,images/mannequin.jpg,images/julia_roberts_c.jpg,images/freedom_tower_c.jpg,images/dustin_hoffman_a.jpg,object-face,images/julia_roberts_c.jpg,images/newspaper_stack.png,,,,,,,,,,,,,,,,,,,,,,,,,,,,,,,,,,,,,,,,,,,,,,,,,,,,,,,,,,,,,,,,,,,,,0,0,0,0,20,0,60,1,,,,,,,,,,,,,,,,,,,,,,,,,,,,,,,,,120.38478161700186,None,,,,,,,,,,,,,,,,,119.9952868319815,None,f,0.36539041801006533,119.9952868319815,None,119.9952868319815,None,119.9952868319815,None,119.9952868319815,None,119.9952868319815,None,,,,,,,,,,,,,,,,,,,,,,4,001,,,2020_Sep_06_2018,reactive_intentional_encoding_looped,3.2.4,61.03029103354074,
images/left.png,f,instruction_images/alpaca_fo.jpg,instruction_images/cake_cheese.png,75,1,1,images/mannequin.jpg,images/julia_roberts_c.jpg,images/freedom_tower_c.jpg,images/dustin_hoffman_a.jpg,object-face,images/julia_roberts_c.jpg,images/newspaper_stack.png,,,,,,,,,,,,,,,,,,,,,,,,,,,,,,,,,,,,,,,,,,,,,,,,,,,,,,,,,,,,,,,,,,,,,0,0,0,0,20,1,61,2,,,,,,,,,,,,,,,,,,,,,,,,,,,,,,,,,121.21703624699148,None,,,,,,,,,,,,,,,,,120.89504102698993,None,f,0.2844933710002806,120.89504102698993,None,120.89504102698993,None,120.89504102698993,None,120.89504102698993,None,120.89504102698993,None,,,,,,,,,,,,,,,,,,,,,,4,001,,,2020_Sep_06_2018,reactive_intentional_encoding_looped,3.2.4,61.03029103354074,
images/right.png,j,instruction_images/bug_ladybug.png,instruction_images/button_plastic.png,85,1,1,images/mannequin.jpg,images/julia_roberts_c.jpg,images/freedom_tower_c.jpg,images/dustin_hoffman_a.jpg,object-face,images/julia_roberts_c.jpg,images/newspaper_stack.png,,,,,,,,,,,,,,,,,,,,,,,,,,,,,,,,,,,,,,,,,,,,,,,,,,,,,,,,,,,,,,,,,,,,,0,0,0,0,20,2,62,0,,,,,,,,,,,,,,,,,,,,,,,,,,,,,,,,,122.16720463699312,None,,,,,,,,,,,,,,,,,121.72831234298064,None,j,0.4053660279896576,121.72831234298064,None,121.72831234298064,None,121.72831234298064,None,121.72831234298064,None,121.72831234298064,None,,,,,,,,,,,,,,,,,,,,,,4,001,,,2020_Sep_06_2018,reactive_intentional_encoding_looped,3.2.4,61.03029103354074,
images/left.png,f,instruction_images/alpaca_fo.jpg,instruction_images/cake_cheese.png,75,1,1,images/mannequin.jpg,images/julia_roberts_c.jpg,images/freedom_tower_c.jpg,images/dustin_hoffman_a.jpg,object-face,images/julia_roberts_c.jpg,images/newspaper_stack.png,,,,,,,,,,,,,,,,,,,,,,,,,,,,,,,,,,,,,,,,,,,,,,,,,,,,,,,,,,,,,,,,,,,,,0,0,0,0,21,0,63,2,,,,,,,,,,,,,,,,,,,,,,,,,,,,,,,,,123.0651916009956,None,,,,,,,,,,,,,,,,,122.67759166599717,None,f,0.3599876269872766,122.67759166599717,None,122.67759166599717,None,122.67759166599717,None,122.67759166599717,None,122.67759166599717,None,,,,,,,,,,,,,,,,,,,,,,4,001,,,2020_Sep_06_2018,reactive_intentional_encoding_looped,3.2.4,61.03029103354074,
images/right.png,j,instruction_images/bug_ladybug.png,instruction_images/button_plastic.png,85,1,1,images/mannequin.jpg,images/julia_roberts_c.jpg,images/freedom_tower_c.jpg,images/dustin_hoffman_a.jpg,object-face,images/julia_roberts_c.jpg,images/newspaper_stack.png,,,,,,,,,,,,,,,,,,,,,,,,,,,,,,,,,,,,,,,,,,,,,,,,,,,,,,,,,,,,,,,,,,,,,0,0,0,0,21,1,64,0,,,,,,,,,,,,,,,,,,,,,,,,,,,,,,,,,123.86689432398998,None,,,,,,,,,,,,,,,,,123.58103603599011,None,f,0.26354115799767897,123.58103603599011,None,123.58103603599011,None,123.58103603599011,None,123.58103603599011,None,123.58103603599011,None,,,,,,,,,,,,,,,,,,,,,,4,001,,,2020_Sep_06_2018,reactive_intentional_encoding_looped,3.2.4,61.03029103354074,
images/left.png,f,instruction_images/antlers.jpg,instruction_images/oldBook.png,95,1,1,images/mannequin.jpg,images/julia_roberts_c.jpg,images/freedom_tower_c.jpg,images/dustin_hoffman_a.jpg,object-face,images/julia_roberts_c.jpg,images/newspaper_stack.png,,,,,,,,,,,,,,,,,,,,,,,,,,,,,,,,,,,,,,,,,,,,,,,,,,,,,,,,,,,,,,,,,,,,,0,0,0,0,21,2,65,1,,,,,,,,,,,,,,,,,,,,,,,,,,,,,,,,,124.76726405697991,None,,,,,,,,,,,,,,,,,124.37879241400515,None,f,0.35868884800584055,124.37879241400515,None,124.37879241400515,None,124.37879241400515,None,124.37879241400515,None,124.37879241400515,None,,,,,,,,,,,,,,,,,,,,,,4,001,,,2020_Sep_06_2018,reactive_intentional_encoding_looped,3.2.4,61.03029103354074,
images/left.png,f,instruction_images/alpaca_fo.jpg,instruction_images/cake_cheese.png,75,1,1,images/mannequin.jpg,images/julia_roberts_c.jpg,images/freedom_tower_c.jpg,images/dustin_hoffman_a.jpg,object-face,images/julia_roberts_c.jpg,images/newspaper_stack.png,,,,,,,,,,,,,,,,,,,,,,,,,,,,,,,,,,,,,,,,,,,,,,,,,,,,,,,,,,,,,,,,,,,,,0,0,0,0,22,0,66,2,,,,,,,,,,,,,,,,,,,,,,,,,,,,,,,,,125.69968820398208,None,,,,,,,,,,,,,,,,,125.27842891498585,None,f,0.39291206700727344,125.27842891498585,None,125.27842891498585,None,125.27842891498585,None,125.27842891498585,None,125.27842891498585,None,,,,,,,,,,,,,,,,,,,,,,4,001,,,2020_Sep_06_2018,reactive_intentional_encoding_looped,3.2.4,61.03029103354074,
images/left.png,f,instruction_images/antlers.jpg,instruction_images/oldBook.png,95,1,1,images/mannequin.jpg,images/julia_roberts_c.jpg,images/freedom_tower_c.jpg,images/dustin_hoffman_a.jpg,object-face,images/julia_roberts_c.jpg,images/newspaper_stack.png,,,,,,,,,,,,,,,,,,,,,,,,,,,,,,,,,,,,,,,,,,,,,,,,,,,,,,,,,,,,,,,,,,,,,0,0,0,0,22,1,67,1,,,,,,,,,,,,,,,,,,,,,,,,,,,,,,,,,126.60047525499249,None,,,,,,,,,,,,,,,,,126.21188035298837,None,f,0.3595421380014159,126.21188035298837,None,126.21188035298837,None,126.21188035298837,None,126.21188035298837,None,126.21188035298837,None,,,,,,,,,,,,,,,,,,,,,,4,001,,,2020_Sep_06_2018,reactive_intentional_encoding_looped,3.2.4,61.03029103354074,
images/right.png,j,instruction_images/bug_ladybug.png,instruction_images/button_plastic.png,85,1,1,images/mannequin.jpg,images/julia_roberts_c.jpg,images/freedom_tower_c.jpg,images/dustin_hoffman_a.jpg,object-face,images/julia_roberts_c.jpg,images/newspaper_stack.png,,,,,,,,,,,,,,,,,,,,,,,,,,,,,,,,,,,,,,,,,,,,,,,,,,,,,,,,,,,,,,,,,,,,,0,0,0,0,22,2,68,0,,,,,,,,,,,,,,,,,,,,,,,,,,,,,,,,,127.53353421998327,None,,,,,,,,,,,,,,,,,127.11101444999804,None,j,0.39240088599035516,127.11101444999804,None,127.11101444999804,None,127.11101444999804,None,127.11101444999804,None,127.11101444999804,None,,,,,,,,,,,,,,,,,,,,,,4,001,,,2020_Sep_06_2018,reactive_intentional_encoding_looped,3.2.4,61.03029103354074,
images/left.png,f,instruction_images/alpaca_fo.jpg,instruction_images/cake_cheese.png,75,1,1,images/mannequin.jpg,images/julia_roberts_c.jpg,images/freedom_tower_c.jpg,images/dustin_hoffman_a.jpg,object-face,images/julia_roberts_c.jpg,images/newspaper_stack.png,,,,,,,,,,,,,,,,,,,,,,,,,,,,,,,,,,,,,,,,,,,,,,,,,,,,,,,,,,,,,,,,,,,,,0,0,0,0,23,0,69,2,,,,,,,,,,,,,,,,,,,,,,,,,,,,,,,,,128.400382428983,None,,,,,,,,,,,,,,,,,128.04538147800486,None,f,0.327977061009733,128.04538147800486,None,128.04538147800486,None,128.04538147800486,None,128.04538147800486,None,128.04538147800486,None,,,,,,,,,,,,,,,,,,,,,,4,001,,,2020_Sep_06_2018,reactive_intentional_encoding_looped,3.2.4,61.03029103354074,
images/right.png,j,instruction_images/bug_ladybug.png,instruction_images/button_plastic.png,85,1,1,images/mannequin.jpg,images/julia_roberts_c.jpg,images/freedom_tower_c.jpg,images/dustin_hoffman_a.jpg,object-face,images/julia_roberts_c.jpg,images/newspaper_stack.png,,,,,,,,,,,,,,,,,,,,,,,,,,,,,,,,,,,,,,,,,,,,,,,,,,,,,,,,,,,,,,,,,,,,,0,0,0,0,23,1,70,0,,,,,,,,,,,,,,,,,,,,,,,,,,,,,,,,,129.46713991399156,None,,,,,,,,,,,,,,,,,128.9115037379961,None,j,0.5211618579924107,128.9115037379961,None,128.9115037379961,None,128.9115037379961,None,128.9115037379961,None,128.9115037379961,None,,,,,,,,,,,,,,,,,,,,,,4,001,,,2020_Sep_06_2018,reactive_intentional_encoding_looped,3.2.4,61.03029103354074,
images/left.png,f,instruction_images/antlers.jpg,instruction_images/oldBook.png,95,1,1,images/mannequin.jpg,images/julia_roberts_c.jpg,images/freedom_tower_c.jpg,images/dustin_hoffman_a.jpg,object-face,images/julia_roberts_c.jpg,images/newspaper_stack.png,,,,,,,,,,,,,,,,,,,,,,,,,,,,,,,,,,,,,,,,,,,,,,,,,,,,,,,,,,,,,,,,,,,,,0,0,0,0,23,2,71,1,,,,,,,,,,,,,,,,,,,,,,,,,,,,,,,,,130.4983843009977,None,,,,,,,,,,,,,,,,,129.9804629519931,None,f,0.4869515610043891,129.9804629519931,None,129.9804629519931,None,129.9804629519931,None,129.9804629519931,None,129.9804629519931,None,,,,,,,,,,,,,,,,,,,,,,4,001,,,2020_Sep_06_2018,reactive_intentional_encoding_looped,3.2.4,61.03029103354074,
images/left.png,f,instruction_images/antlers.jpg,instruction_images/oldBook.png,95,1,1,images/mannequin.jpg,images/julia_roberts_c.jpg,images/freedom_tower_c.jpg,images/dustin_hoffman_a.jpg,object-face,images/julia_roberts_c.jpg,images/newspaper_stack.png,,,,,,,,,,,,,,,,,,,,,,,,,,,,,,,,,,,,,,,,,,,,,,,,,,,,,,,,,,,,,,,,,,,,,0,0,0,0,24,0,72,1,,,,,,,,,,,,,,,,,,,,,,,,,,,,,,,,,131.38291309500346,None,,,,,,,,,,,,,,,,,131.01116285598255,None,f,0.3412713870056905,131.01116285598255,None,131.01116285598255,None,131.01116285598255,None,131.01116285598255,None,131.01116285598255,None,,,,,,,,,,,,,,,,,,,,,,4,001,,,2020_Sep_06_2018,reactive_intentional_encoding_looped,3.2.4,61.03029103354074,
images/left.png,f,instruction_images/alpaca_fo.jpg,instruction_images/cake_cheese.png,75,1,1,images/mannequin.jpg,images/julia_roberts_c.jpg,images/freedom_tower_c.jpg,images/dustin_hoffman_a.jpg,object-face,images/julia_roberts_c.jpg,images/newspaper_stack.png,,,,,,,,,,,,,,,,,,,,,,,,,,,,,,,,,,,,,,,,,,,,,,,,,,,,,,,,,,,,,,,,,,,,,0,0,0,0,24,1,73,2,,,,,,,,,,,,,,,,,,,,,,,,,,,,,,,,,132.21625074598705,None,,,,,,,,,,,,,,,,,131.89559280098183,None,f,0.29820454999571666,131.89559280098183,None,131.89559280098183,None,131.89559280098183,None,131.89559280098183,None,131.89559280098183,None,,,,,,,,,,,,,,,,,,,,,,4,001,,,2020_Sep_06_2018,reactive_intentional_encoding_looped,3.2.4,61.03029103354074,
images/right.png,j,instruction_images/bug_ladybug.png,instruction_images/button_plastic.png,85,1,1,images/mannequin.jpg,images/julia_roberts_c.jpg,images/freedom_tower_c.jpg,images/dustin_hoffman_a.jpg,object-face,images/julia_roberts_c.jpg,images/newspaper_stack.png,,,,,,,,,,,,,,,,,,,,,,,,,,,,,,,,,,,,,,,,,,,,,,,,,,,,,,,,,,,,,,,,,,,,,0,0,0,0,24,2,74,0,,,,,,,,,,,,,,,,,,,,,,,,,,,,,,,,,133.18291918199975,None,,,,,,,,,,,,,,,,,132.73007616898394,None,j,0.41942716599442065,132.73007616898394,None,132.73007616898394,None,132.73007616898394,None,132.73007616898394,None,132.73007616898394,None,,,,,,,,,,,,,,,,,,,,,,4,001,,,2020_Sep_06_2018,reactive_intentional_encoding_looped,3.2.4,61.03029103354074,
images/right.png,j,instruction_images/bug_ladybug.png,instruction_images/button_plastic.png,85,1,1,images/mannequin.jpg,images/julia_roberts_c.jpg,images/freedom_tower_c.jpg,images/dustin_hoffman_a.jpg,object-face,images/julia_roberts_c.jpg,images/newspaper_stack.png,,,,,,,,,,,,,,,,,,,,,,,,,,,,,,,,,,,,,,,,,,,,,,,,,,,,,,,,,,,,,,,,,,,,,0,0,0,0,25,0,75,0,,,,,,,,,,,,,,,,,,,,,,,,,,,,,,,,,134.03333233200829,None,,,,,,,,,,,,,,,,,133.69418111399864,None,f,0.31204694401822053,133.69418111399864,None,133.69418111399864,None,133.69418111399864,None,133.69418111399864,None,133.69418111399864,None,,,,,,,,,,,,,,,,,,,,,,4,001,,,2020_Sep_06_2018,reactive_intentional_encoding_looped,3.2.4,61.03029103354074,
images/left.png,f,instruction_images/antlers.jpg,instruction_images/oldBook.png,95,1,1,images/mannequin.jpg,images/julia_roberts_c.jpg,images/freedom_tower_c.jpg,images/dustin_hoffman_a.jpg,object-face,images/julia_roberts_c.jpg,images/newspaper_stack.png,,,,,,,,,,,,,,,,,,,,,,,,,,,,,,,,,,,,,,,,,,,,,,,,,,,,,,,,,,,,,,,,,,,,,0,0,0,0,25,1,76,1,,,,,,,,,,,,,,,,,,,,,,,,,,,,,,,,,135.054115721985,None,,,,,,,,,,,,,,,,,134.54476453800453,None,f,0.4826814019761514,134.54476453800453,None,134.54476453800453,None,134.54476453800453,None,134.54476453800453,None,134.54476453800453,None,,,,,,,,,,,,,,,,,,,,,,4,001,,,2020_Sep_06_2018,reactive_intentional_encoding_looped,3.2.4,61.03029103354074,
images/left.png,f,instruction_images/alpaca_fo.jpg,instruction_images/cake_cheese.png,75,1,1,images/mannequin.jpg,images/julia_roberts_c.jpg,images/freedom_tower_c.jpg,images/dustin_hoffman_a.jpg,object-face,images/julia_roberts_c.jpg,images/newspaper_stack.png,,,,,,,,,,,,,,,,,,,,,,,,,,,,,,,,,,,,,,,,,,,,,,,,,,,,,,,,,,,,,,,,,,,,,0,0,0,0,25,2,77,2,,,,,,,,,,,,,,,,,,,,,,,,,,,,,,,,,135.93413702998077,None,,,,,,,,,,,,,,,,,135.5637138109887,None,f,0.33557500899769366,135.5637138109887,None,135.5637138109887,None,135.5637138109887,None,135.5637138109887,None,135.5637138109887,None,,,,,,,,,,,,,,,,,,,,,,4,001,,,2020_Sep_06_2018,reactive_intentional_encoding_looped,3.2.4,61.03029103354074,
images/left.png,f,instruction_images/alpaca_fo.jpg,instruction_images/cake_cheese.png,75,1,1,images/mannequin.jpg,images/julia_roberts_c.jpg,images/freedom_tower_c.jpg,images/dustin_hoffman_a.jpg,object-face,images/julia_roberts_c.jpg,images/newspaper_stack.png,,,,,,,,,,,,,,,,,,,,,,,,,,,,,,,,,,,,,,,,,,,,,,,,,,,,,,,,,,,,,,,,,,,,,0,0,0,0,26,0,78,2,,,,,,,,,,,,,,,,,,,,,,,,,,,,,,,,,136.83347091899486,None,,,,,,,,,,,,,,,,,136.44340886900318,None,f,0.3616841030016076,136.44340886900318,None,136.44340886900318,None,136.44340886900318,None,136.44340886900318,None,136.44340886900318,None,,,,,,,,,,,,,,,,,,,,,,4,001,,,2020_Sep_06_2018,reactive_intentional_encoding_looped,3.2.4,61.03029103354074,
images/right.png,j,instruction_images/bug_ladybug.png,instruction_images/button_plastic.png,85,1,1,images/mannequin.jpg,images/julia_roberts_c.jpg,images/freedom_tower_c.jpg,images/dustin_hoffman_a.jpg,object-face,images/julia_roberts_c.jpg,images/newspaper_stack.png,,,,,,,,,,,,,,,,,,,,,,,,,,,,,,,,,,,,,,,,,,,,,,,,,,,,,,,,,,,,,,,,,,,,,0,0,0,0,26,1,79,0,,,,,,,,,,,,,,,,,,,,,,,,,,,,,,,,,137.88363970798673,None,,,,,,,,,,,,,,,,,137.34510921299807,None,j,0.5051092939975206,137.34510921299807,None,137.34510921299807,None,137.34510921299807,None,137.34510921299807,None,137.34510921299807,None,,,,,,,,,,,,,,,,,,,,,,4,001,,,2020_Sep_06_2018,reactive_intentional_encoding_looped,3.2.4,61.03029103354074,
images/left.png,f,instruction_images/antlers.jpg,instruction_images/oldBook.png,95,1,1,images/mannequin.jpg,images/julia_roberts_c.jpg,images/freedom_tower_c.jpg,images/dustin_hoffman_a.jpg,object-face,images/julia_roberts_c.jpg,images/newspaper_stack.png,,,,,,,,,,,,,,,,,,,,,,,,,,,,,,,,,,,,,,,,,,,,,,,,,,,,,,,,,,,,,,,,,,,,,0,0,0,0,26,2,80,1,,,,,,,,,,,,,,,,,,,,,,,,,,,,,,,,,138.8175282839802,None,,,,,,,,,,,,,,,,,138.39445948199136,None,f,0.38980701100081205,138.39445948199136,None,138.39445948199136,None,138.39445948199136,None,138.39445948199136,None,138.39445948199136,None,,,,,,,,,,,,,,,,,,,,,,4,001,,,2020_Sep_06_2018,reactive_intentional_encoding_looped,3.2.4,61.03029103354074,
images/left.png,f,instruction_images/alpaca_fo.jpg,instruction_images/cake_cheese.png,75,1,1,images/mannequin.jpg,images/julia_roberts_c.jpg,images/freedom_tower_c.jpg,images/dustin_hoffman_a.jpg,object-face,images/julia_roberts_c.jpg,images/newspaper_stack.png,,,,,,,,,,,,,,,,,,,,,,,,,,,,,,,,,,,,,,,,,,,,,,,,,,,,,,,,,,,,,,,,,,,,,0,0,0,0,27,0,81,2,,,,,,,,,,,,,,,,,,,,,,,,,,,,,,,,,139.6654785279825,None,,,,,,,,,,,,,,,,,139.3282781779999,None,f,0.31551143099204637,139.3282781779999,None,139.3282781779999,None,139.3282781779999,None,139.3282781779999,None,139.3282781779999,None,,,,,,,,,,,,,,,,,,,,,,4,001,,,2020_Sep_06_2018,reactive_intentional_encoding_looped,3.2.4,61.03029103354074,
images/left.png,f,instruction_images/antlers.jpg,instruction_images/oldBook.png,95,1,1,images/mannequin.jpg,images/julia_roberts_c.jpg,images/freedom_tower_c.jpg,images/dustin_hoffman_a.jpg,object-face,images/julia_roberts_c.jpg,images/newspaper_stack.png,,,,,,,,,,,,,,,,,,,,,,,,,,,,,,,,,,,,,,,,,,,,,,,,,,,,,,,,,,,,,,,,,,,,,0,0,0,0,27,1,82,1,,,,,,,,,,,,,,,,,,,,,,,,,,,,,,,,,140.51478187000612,None,,,,,,,,,,,,,,,,,140.1779569069913,None,f,0.31301241100300103,140.1779569069913,None,140.1779569069913,None,140.1779569069913,None,140.1779569069913,None,140.1779569069913,None,,,,,,,,,,,,,,,,,,,,,,4,001,,,2020_Sep_06_2018,reactive_intentional_encoding_looped,3.2.4,61.03029103354074,
images/right.png,j,instruction_images/bug_ladybug.png,instruction_images/button_plastic.png,85,1,1,images/mannequin.jpg,images/julia_roberts_c.jpg,images/freedom_tower_c.jpg,images/dustin_hoffman_a.jpg,object-face,images/julia_roberts_c.jpg,images/newspaper_stack.png,,,,,,,,,,,,,,,,,,,,,,,,,,,,,,,,,,,,,,,,,,,,,,,,,,,,,,,,,,,,,,,,,,,,,0,0,0,0,27,2,83,0,,,,,,,,,,,,,,,,,,,,,,,,,,,,,,,,,141.38292104299762,None,,,,,,,,,,,,,,,,,141.027971478994,None,j,0.3289727949886583,141.027971478994,None,141.027971478994,None,141.027971478994,None,141.027971478994,None,141.027971478994,None,,,,,,,,,,,,,,,,,,,,,,4,001,,,2020_Sep_06_2018,reactive_intentional_encoding_looped,3.2.4,61.03029103354074,
images/right.png,j,instruction_images/bug_ladybug.png,instruction_images/button_plastic.png,85,1,1,images/mannequin.jpg,images/julia_roberts_c.jpg,images/freedom_tower_c.jpg,images/dustin_hoffman_a.jpg,object-face,images/julia_roberts_c.jpg,images/newspaper_stack.png,,,,,,,,,,,,,,,,,,,,,,,,,,,,,,,,,,,,,,,,,,,,,,,,,,,,,,,,,,,,,,,,,,,,,0,0,0,0,28,0,84,0,,,,,,,,,,,,,,,,,,,,,,,,,,,,,,,,,142.43256275498425,None,,,,,,,,,,,,,,,,,141.8939848879818,None,j,0.5061387270106934,141.8939848879818,None,141.8939848879818,None,141.8939848879818,None,141.8939848879818,None,141.8939848879818,None,,,,,,,,,,,,,,,,,,,,,,4,001,,,2020_Sep_06_2018,reactive_intentional_encoding_looped,3.2.4,61.03029103354074,
images/left.png,f,instruction_images/antlers.jpg,instruction_images/oldBook.png,95,1,1,images/mannequin.jpg,images/julia_roberts_c.jpg,images/freedom_tower_c.jpg,images/dustin_hoffman_a.jpg,object-face,images/julia_roberts_c.jpg,images/newspaper_stack.png,,,,,,,,,,,,,,,,,,,,,,,,,,,,,,,,,,,,,,,,,,,,,,,,,,,,,,,,,,,,,,,,,,,,,0,0,0,0,28,1,85,1,,,,,,,,,,,,,,,,,,,,,,,,,,,,,,,,,143.26481322798645,None,,,,,,,,,,,,,,,,,142.94496513198828,None,j,0.2900163829908706,142.94496513198828,None,142.94496513198828,None,142.94496513198828,None,142.94496513198828,None,142.94496513198828,None,,,,,,,,,,,,,,,,,,,,,,4,001,,,2020_Sep_06_2018,reactive_intentional_encoding_looped,3.2.4,61.03029103354074,
images/left.png,f,instruction_images/alpaca_fo.jpg,instruction_images/cake_cheese.png,75,1,1,images/mannequin.jpg,images/julia_roberts_c.jpg,images/freedom_tower_c.jpg,images/dustin_hoffman_a.jpg,object-face,images/julia_roberts_c.jpg,images/newspaper_stack.png,,,,,,,,,,,,,,,,,,,,,,,,,,,,,,,,,,,,,,,,,,,,,,,,,,,,,,,,,,,,,,,,,,,,,0,0,0,0,28,2,86,2,,,,,,,,,,,,,,,,,,,,,,,,,,,,,,,,,144.35046133800643,None,,,,,,,,,,,,,,,,,143.7786981049867,None,f,0.5481969329994172,143.7786981049867,None,143.7786981049867,None,143.7786981049867,None,143.7786981049867,None,143.7786981049867,None,,,,,,,,,,,,,,,,,,,,,,4,001,,,2020_Sep_06_2018,reactive_intentional_encoding_looped,3.2.4,61.03029103354074,
images/left.png,f,instruction_images/alpaca_fo.jpg,instruction_images/cake_cheese.png,75,1,1,images/mannequin.jpg,images/julia_roberts_c.jpg,images/freedom_tower_c.jpg,images/dustin_hoffman_a.jpg,object-face,images/julia_roberts_c.jpg,images/newspaper_stack.png,,,,,,,,,,,,,,,,,,,,,,,,,,,,,,,,,,,,,,,,,,,,,,,,,,,,,,,,,,,,,,,,,,,,,0,0,0,0,29,0,87,2,,,,,,,,,,,,,,,,,,,,,,,,,,,,,,,,,145.19793211200158,None,,,,,,,,,,,,,,,,,144.86148068099283,None,f,0.3151499929954298,144.86148068099283,None,144.86148068099283,None,144.86148068099283,None,144.86148068099283,None,144.86148068099283,None,,,,,,,,,,,,,,,,,,,,,,4,001,,,2020_Sep_06_2018,reactive_intentional_encoding_looped,3.2.4,61.03029103354074,
images/left.png,f,instruction_images/antlers.jpg,instruction_images/oldBook.png,95,1,1,images/mannequin.jpg,images/julia_roberts_c.jpg,images/freedom_tower_c.jpg,images/dustin_hoffman_a.jpg,object-face,images/julia_roberts_c.jpg,images/newspaper_stack.png,,,,,,,,,,,,,,,,,,,,,,,,,,,,,,,,,,,,,,,,,,,,,,,,,,,,,,,,,,,,,,,,,,,,,0,0,0,0,29,1,88,1,,,,,,,,,,,,,,,,,,,,,,,,,,,,,,,,,146.0784520029847,None,,,,,,,,,,,,,,,,,145.7104054329975,None,f,0.3225871510221623,145.7104054329975,None,145.7104054329975,None,145.7104054329975,None,145.7104054329975,None,145.7104054329975,None,,,,,,,,,,,,,,,,,,,,,,4,001,,,2020_Sep_06_2018,reactive_intentional_encoding_looped,3.2.4,61.03029103354074,
images/right.png,j,instruction_images/bug_ladybug.png,instruction_images/button_plastic.png,85,1,1,images/mannequin.jpg,images/julia_roberts_c.jpg,images/freedom_tower_c.jpg,images/dustin_hoffman_a.jpg,object-face,images/julia_roberts_c.jpg,images/newspaper_stack.png,,,,,,,,,,,,,,,,,,,,,,,,,,,,,,,,,,,,,,,,,,,,,,,,,,,,,,,,,,,,,,,,,,,,,0,0,0,0,29,2,89,0,,,,,,,,,,,,,,,,,,,,,,,,,,,,,,,,,146.9987764179823,None,,,,,,,,,,,,,,,,,146.58187385700876,None,j,0.3897481269959826,146.58187385700876,None,146.58187385700876,None,146.58187385700876,None,146.58187385700876,None,146.58187385700876,None,,,,,,,,,,,,,,,,,,,,,,4,001,,,2020_Sep_06_2018,reactive_intentional_encoding_looped,3.2.4,61.03029103354074,
images/left.png,f,instruction_images/alpaca_fo.jpg,instruction_images/cake_cheese.png,75,1,1,images/mannequin.jpg,images/julia_roberts_c.jpg,images/freedom_tower_c.jpg,images/dustin_hoffman_a.jpg,object-face,images/julia_roberts_c.jpg,images/newspaper_stack.png,,,,,,,,,,,,,,,,,,,,,,,,,,,,,,,,,,,,,,,,,,,,,,,,,,,,,,,,,,,,,,,,,,,,,0,0,0,0,30,0,90,2,,,,,,,,,,,,,,,,,,,,,,,,,,,,,,,,,147.89850841200678,None,,,,,,,,,,,,,,,,,147.51103326299926,None,f,0.35260330597520806,147.51103326299926,None,147.51103326299926,None,147.51103326299926,None,147.51103326299926,None,147.51103326299926,None,,,,,,,,,,,,,,,,,,,,,,4,001,,,2020_Sep_06_2018,reactive_intentional_encoding_looped,3.2.4,61.03029103354074,
images/left.png,f,instruction_images/antlers.jpg,instruction_images/oldBook.png,95,1,1,images/mannequin.jpg,images/julia_roberts_c.jpg,images/freedom_tower_c.jpg,images/dustin_hoffman_a.jpg,object-face,images/julia_roberts_c.jpg,images/newspaper_stack.png,,,,,,,,,,,,,,,,,,,,,,,,,,,,,,,,,,,,,,,,,,,,,,,,,,,,,,,,,,,,,,,,,,,,,0,0,0,0,30,1,91,1,,,,,,,,,,,,,,,,,,,,,,,,,,,,,,,,,148.74785824399441,None,,,,,,,,,,,,,,,,,148.41231966699706,None,f,0.31442838700604625,148.41231966699706,None,148.41231966699706,None,148.41231966699706,None,148.41231966699706,None,148.41231966699706,None,,,,,,,,,,,,,,,,,,,,,,4,001,,,2020_Sep_06_2018,reactive_intentional_encoding_looped,3.2.4,61.03029103354074,
images/right.png,j,instruction_images/bug_ladybug.png,instruction_images/button_plastic.png,85,1,1,images/mannequin.jpg,images/julia_roberts_c.jpg,images/freedom_tower_c.jpg,images/dustin_hoffman_a.jpg,object-face,images/julia_roberts_c.jpg,images/newspaper_stack.png,,,,,,,,,,,,,,,,,,,,,,,,,,,,,,,,,,,,,,,,,,,,,,,,,,,,,,,,,,,,,,,,,,,,,0,0,0,0,30,2,92,0,,,,,,,,,,,,,,,,,,,,,,,,,,,,,,,,,149.76452698698267,None,,,,,,,,,,,,,,,,,149.26080643199384,None,j,0.47600564698223025,149.26080643199384,None,149.26080643199384,None,149.26080643199384,None,149.26080643199384,None,149.26080643199384,None,,,,,,,,,,,,,,,,,,,,,,4,001,,,2020_Sep_06_2018,reactive_intentional_encoding_looped,3.2.4,61.03029103354074,
images/left.png,f,instruction_images/antlers.jpg,instruction_images/oldBook.png,95,1,1,images/mannequin.jpg,images/julia_roberts_c.jpg,images/freedom_tower_c.jpg,images/dustin_hoffman_a.jpg,object-face,images/julia_roberts_c.jpg,images/newspaper_stack.png,,,,,,,,,,,,,,,,,,,,,,,,,,,,,,,,,,,,,,,,,,,,,,,,,,,,,,,,,,,,,,,,,,,,,0,0,0,0,31,0,93,1,,,,,,,,,,,,,,,,,,,,,,,,,,,,,,,,,150.54846699698828,None,,,,,,,,,,,,,,,,,150.2777883989911,None,f,0.24697657499928027,150.2777883989911,None,150.2777883989911,None,150.2777883989911,None,150.2777883989911,None,150.2777883989911,None,,,,,,,,,,,,,,,,,,,,,,4,001,,,2020_Sep_06_2018,reactive_intentional_encoding_looped,3.2.4,61.03029103354074,
images/left.png,f,instruction_images/alpaca_fo.jpg,instruction_images/cake_cheese.png,75,1,1,images/mannequin.jpg,images/julia_roberts_c.jpg,images/freedom_tower_c.jpg,images/dustin_hoffman_a.jpg,object-face,images/julia_roberts_c.jpg,images/newspaper_stack.png,,,,,,,,,,,,,,,,,,,,,,,,,,,,,,,,,,,,,,,,,,,,,,,,,,,,,,,,,,,,,,,,,,,,,0,0,0,0,31,1,94,2,,,,,,,,,,,,,,,,,,,,,,,,,,,,,,,,,151.38352042698534,None,,,,,,,,,,,,,,,,,151.0638782089809,None,f,0.28160001899232157,151.0638782089809,None,151.0638782089809,None,151.0638782089809,None,151.0638782089809,None,151.0638782089809,None,,,,,,,,,,,,,,,,,,,,,,4,001,,,2020_Sep_06_2018,reactive_intentional_encoding_looped,3.2.4,61.03029103354074,
images/right.png,j,instruction_images/bug_ladybug.png,instruction_images/button_plastic.png,85,1,1,images/mannequin.jpg,images/julia_roberts_c.jpg,images/freedom_tower_c.jpg,images/dustin_hoffman_a.jpg,object-face,images/julia_roberts_c.jpg,images/newspaper_stack.png,,,,,,,,,,,,,,,,,,,,,,,,,,,,,,,,,,,,,,,,,,,,,,,,,,,,,,,,,,,,,,,,,,,,,0,0,0,0,31,2,95,0,,,,,,,,,,,,,,,,,,,,,,,,,,,,,,,,,152.31479207298253,None,,,,,,,,,,,,,,,,,151.89500030700583,None,j,0.3986120560148265,151.89500030700583,None,151.89500030700583,None,151.89500030700583,None,151.89500030700583,None,151.89500030700583,None,,,,,,,,,,,,,,,,,,,,,,4,001,,,2020_Sep_06_2018,reactive_intentional_encoding_looped,3.2.4,61.03029103354074,
images/left.png,f,instruction_images/alpaca_fo.jpg,instruction_images/cake_cheese.png,75,1,1,images/mannequin.jpg,images/julia_roberts_c.jpg,images/freedom_tower_c.jpg,images/dustin_hoffman_a.jpg,object-face,images/julia_roberts_c.jpg,images/newspaper_stack.png,,,,,,,,,,,,,,,,,,,,,,,,,,,,,,,,,,,,,,,,,,,,,,,,,,,,,,,,,,,,,,,,,,,,,0,0,0,0,32,0,96,2,,,,,,,,,,,,,,,,,,,,,,,,,,,,,,,,,153.13142880998203,None,,,,,,,,,,,,,,,,,152.82775025299634,None,f,0.28249739899183623,152.82775025299634,None,152.82775025299634,None,152.82775025299634,None,152.82775025299634,None,152.82775025299634,None,,,,,,,,,,,,,,,,,,,,,,4,001,,,2020_Sep_06_2018,reactive_intentional_encoding_looped,3.2.4,61.03029103354074,
images/left.png,f,instruction_images/antlers.jpg,instruction_images/oldBook.png,95,1,1,images/mannequin.jpg,images/julia_roberts_c.jpg,images/freedom_tower_c.jpg,images/dustin_hoffman_a.jpg,object-face,images/julia_roberts_c.jpg,images/newspaper_stack.png,,,,,,,,,,,,,,,,,,,,,,,,,,,,,,,,,,,,,,,,,,,,,,,,,,,,,,,,,,,,,,,,,,,,,0,0,0,0,32,1,97,1,,,,,,,,,,,,,,,,,,,,,,,,,,,,,,,,,153.9687578319863,None,,,,,,,,,,,,,,,,,153.64457641699119,None,f,0.2899401669856161,153.64457641699119,None,153.64457641699119,None,153.64457641699119,None,153.64457641699119,None,153.64457641699119,None,,,,,,,,,,,,,,,,,,,,,,4,001,,,2020_Sep_06_2018,reactive_intentional_encoding_looped,3.2.4,61.03029103354074,
images/right.png,j,instruction_images/bug_ladybug.png,instruction_images/button_plastic.png,85,1,1,images/mannequin.jpg,images/julia_roberts_c.jpg,images/freedom_tower_c.jpg,images/dustin_hoffman_a.jpg,object-face,images/julia_roberts_c.jpg,images/newspaper_stack.png,,,,,,,,,,,,,,,,,,,,,,,,,,,,,,,,,,,,,,,,,,,,,,,,,,,,,,,,,,,,,,,,,,,,,0,0,0,0,32,2,98,0,,,,,,,,,,,,,,,,,,,,,,,,,,,,,,,,,154.91504664198146,None,,,,,,,,,,,,,,,,,154.47957864799537,None,j,0.404101359017659,154.47957864799537,None,154.47957864799537,None,154.47957864799537,None,154.47957864799537,None,154.47957864799537,None,,,,,,,,,,,,,,,,,,,,,,4,001,,,2020_Sep_06_2018,reactive_intentional_encoding_looped,3.2.4,61.03029103354074,
images/left.png,f,instruction_images/alpaca_fo.jpg,instruction_images/cake_cheese.png,75,1,1,images/mannequin.jpg,images/julia_roberts_c.jpg,images/freedom_tower_c.jpg,images/dustin_hoffman_a.jpg,object-face,images/julia_roberts_c.jpg,images/newspaper_stack.png,,,,,,,,,,,,,,,,,,,,,,,,,,,,,,,,,,,,,,,,,,,,,,,,,,,,,,,,,,,,,,,,,,,,,0,0,0,0,33,0,99,2,,,,,,,,,,,,,,,,,,,,,,,,,,,,,,,,,155.68258297798457,None,,,,,,,,,,,,,,,,,155.42806795198703,None,f,0.2226246359932702,155.42806795198703,None,155.42806795198703,None,155.42806795198703,None,155.42806795198703,None,155.42806795198703,None,,,,,,,,,,,,,,,,,,,,,,4,001,,,2020_Sep_06_2018,reactive_intentional_encoding_looped,3.2.4,61.03029103354074,
images/right.png,j,instruction_images/bug_ladybug.png,instruction_images/button_plastic.png,85,1,1,images/mannequin.jpg,images/julia_roberts_c.jpg,images/freedom_tower_c.jpg,images/dustin_hoffman_a.jpg,object-face,images/julia_roberts_c.jpg,images/newspaper_stack.png,,,,,,,,,,,,,,,,,,,,,,,,,,,,,,,,,,,,,,,,,,,,,,,,,,,,,,,,,,,,,,,,,,,,,0,0,0,0,33,1,100,0,,,,,,,,,,,,,,,,,,,,,,,,,,,,,,,,,156.96633031399688,None,,,,,,,,,,,,,,,,,156.1949340919964,None,j,0.7386947849881835,156.1949340919964,None,156.1949340919964,None,156.1949340919964,None,156.1949340919964,None,156.1949340919964,None,,,,,,,,,,,,,,,,,,,,,,4,001,,,2020_Sep_06_2018,reactive_intentional_encoding_looped,3.2.4,61.03029103354074,
images/left.png,f,instruction_images/antlers.jpg,instruction_images/oldBook.png,95,1,1,images/mannequin.jpg,images/julia_roberts_c.jpg,images/freedom_tower_c.jpg,images/dustin_hoffman_a.jpg,object-face,images/julia_roberts_c.jpg,images/newspaper_stack.png,,,,,,,,,,,,,,,,,,,,,,,,,,,,,,,,,,,,,,,,,,,,,,,,,,,,,,,,,,,,,,,,,,,,,0,0,0,0,33,2,101,1,,,,,,,,,,,,,,,,,,,,,,,,,,,,,,,,,157.93084408098366,None,,,,,,,,,,,,,,,,,157.48029488700558,None,f,0.4231053630064707,157.48029488700558,None,157.48029488700558,None,157.48029488700558,None,157.48029488700558,None,157.48029488700558,None,,,,,,,,,,,,,,,,,,,,,,4,001,,,2020_Sep_06_2018,reactive_intentional_encoding_looped,3.2.4,61.03029103354074,
images/left.png,f,instruction_images/antlers.jpg,instruction_images/oldBook.png,95,1,1,images/mannequin.jpg,images/julia_roberts_c.jpg,images/freedom_tower_c.jpg,images/dustin_hoffman_a.jpg,object-face,images/julia_roberts_c.jpg,images/newspaper_stack.png,,,,,,,,,,,,,,,,,,,,,,,,,,,,,,,,,,,,,,,,,,,,,,,,,,,,,,,,,,,,,,,,,,,,,0,0,0,0,34,0,102,1,,,,,,,,,,,,,,,,,,,,,,,,,,,,,,,,,158.93141313400702,None,,,,,,,,,,,,,,,,,158.44470366000314,None,f,0.4586869199993089,158.44470366000314,None,158.44470366000314,None,158.44470366000314,None,158.44470366000314,None,158.44470366000314,None,,,,,,,,,,,,,,,,,,,,,,4,001,,,2020_Sep_06_2018,reactive_intentional_encoding_looped,3.2.4,61.03029103354074,
images/right.png,j,instruction_images/bug_ladybug.png,instruction_images/button_plastic.png,85,1,1,images/mannequin.jpg,images/julia_roberts_c.jpg,images/freedom_tower_c.jpg,images/dustin_hoffman_a.jpg,object-face,images/julia_roberts_c.jpg,images/newspaper_stack.png,,,,,,,,,,,,,,,,,,,,,,,,,,,,,,,,,,,,,,,,,,,,,,,,,,,,,,,,,,,,,,,,,,,,,0,0,0,0,34,1,103,0,,,,,,,,,,,,,,,,,,,,,,,,,,,,,,,,,159.69976428398513,None,,,,,,,,,,,,,,,,,159.44419567799196,None,j,0.22693727200385183,159.44419567799196,None,159.44419567799196,None,159.44419567799196,None,159.44419567799196,None,159.44419567799196,None,,,,,,,,,,,,,,,,,,,,,,4,001,,,2020_Sep_06_2018,reactive_intentional_encoding_looped,3.2.4,61.03029103354074,
images/left.png,f,instruction_images/alpaca_fo.jpg,instruction_images/cake_cheese.png,75,1,1,images/mannequin.jpg,images/julia_roberts_c.jpg,images/freedom_tower_c.jpg,images/dustin_hoffman_a.jpg,object-face,images/julia_roberts_c.jpg,images/newspaper_stack.png,,,,,,,,,,,,,,,,,,,,,,,,,,,,,,,,,,,,,,,,,,,,,,,,,,,,,,,,,,,,,,,,,,,,,0,0,0,0,34,2,104,2,,,,,,,,,,,,,,,,,,,,,,,,,,,,,,,,,160.44910656198044,None,,,,,,,,,,,,,,,,,160.2112540329981,None,f,0.20193485001800582,160.2112540329981,None,160.2112540329981,None,160.2112540329981,None,160.2112540329981,None,160.2112540329981,None,,,,,,,,,,,,,,,,,,,,,,4,001,,,2020_Sep_06_2018,reactive_intentional_encoding_looped,3.2.4,61.03029103354074,
images/left.png,f,instruction_images/alpaca_fo.jpg,instruction_images/cake_cheese.png,75,1,1,images/mannequin.jpg,images/julia_roberts_c.jpg,images/freedom_tower_c.jpg,images/dustin_hoffman_a.jpg,object-face,images/julia_roberts_c.jpg,images/newspaper_stack.png,,,,,,,,,,,,,,,,,,,,,,,,,,,,,,,,,,,,,,,,,,,,,,,,,,,,,,,,,,,,,,,,,,,,,0,0,0,0,35,0,105,2,,,,,,,,,,,,,,,,,,,,,,,,,,,,,,,,,161.4644819899986,None,,,,,,,,,,,,,,,,,160.96148967000772,None,f,0.46560485201189294,160.96148967000772,None,160.96148967000772,None,160.96148967000772,None,160.96148967000772,None,160.96148967000772,None,,,,,,,,,,,,,,,,,,,,,,4,001,,,2020_Sep_06_2018,reactive_intentional_encoding_looped,3.2.4,61.03029103354074,
images/right.png,j,instruction_images/bug_ladybug.png,instruction_images/button_plastic.png,85,1,1,images/mannequin.jpg,images/julia_roberts_c.jpg,images/freedom_tower_c.jpg,images/dustin_hoffman_a.jpg,object-face,images/julia_roberts_c.jpg,images/newspaper_stack.png,,,,,,,,,,,,,,,,,,,,,,,,,,,,,,,,,,,,,,,,,,,,,,,,,,,,,,,,,,,,,,,,,,,,,0,0,0,0,35,1,106,0,,,,,,,,,,,,,,,,,,,,,,,,,,,,,,,,,162.44362575700507,None,,,,,,,,,,,,,,,,,161.97917006298667,None,j,0.42033474799245596,161.97917006298667,None,161.97917006298667,None,161.97917006298667,None,161.97917006298667,None,161.97917006298667,None,,,,,,,,,,,,,,,,,,,,,,4,001,,,2020_Sep_06_2018,reactive_intentional_encoding_looped,3.2.4,61.03029103354074,
images/left.png,f,instruction_images/antlers.jpg,instruction_images/oldBook.png,95,1,1,images/mannequin.jpg,images/julia_roberts_c.jpg,images/freedom_tower_c.jpg,images/dustin_hoffman_a.jpg,object-face,images/julia_roberts_c.jpg,images/newspaper_stack.png,,,,,,,,,,,,,,,,,,,,,,,,,,,,,,,,,,,,,,,,,,,,,,,,,,,,,,,,,,,,,,,,,,,,,0,0,0,0,35,2,107,1,,,,,,,,,,,,,,,,,,,,,,,,,,,,,,,,,163.19818212400423,None,,,,,,,,,,,,,,,,,162.94500763100223,None,f,0.2171106100140605,162.94500763100223,None,162.94500763100223,None,162.94500763100223,None,162.94500763100223,None,162.94500763100223,None,,,,,,,,,,,,,,,,,,,,,,4,001,,,2020_Sep_06_2018,reactive_intentional_encoding_looped,3.2.4,61.03029103354074,
images/left.png,f,instruction_images/alpaca_fo.jpg,instruction_images/cake_cheese.png,75,1,1,images/mannequin.jpg,images/julia_roberts_c.jpg,images/freedom_tower_c.jpg,images/dustin_hoffman_a.jpg,object-face,images/julia_roberts_c.jpg,images/newspaper_stack.png,,,,,,,,,,,,,,,,,,,,,,,,,,,,,,,,,,,,,,,,,,,,,,,,,,,,,,,,,,,,,,,,,,,,,0,0,0,0,36,0,108,2,,,,,,,,,,,,,,,,,,,,,,,,,,,,,,,,,163.89385143399704,None,,,,,,,,,,,,,,,,,163.7112027379917,None,f,0.13805638998746872,163.7112027379917,None,163.7112027379917,None,163.7112027379917,None,163.7112027379917,None,163.7112027379917,None,,,,,,,,,,,,,,,,,,,,,,4,001,,,2020_Sep_06_2018,reactive_intentional_encoding_looped,3.2.4,61.03029103354074,
images/right.png,j,instruction_images/bug_ladybug.png,instruction_images/button_plastic.png,85,1,1,images/mannequin.jpg,images/julia_roberts_c.jpg,images/freedom_tower_c.jpg,images/dustin_hoffman_a.jpg,object-face,images/julia_roberts_c.jpg,images/newspaper_stack.png,,,,,,,,,,,,,,,,,,,,,,,,,,,,,,,,,,,,,,,,,,,,,,,,,,,,,,,,,,,,,,,,,,,,,0,0,0,0,36,1,109,0,,,,,,,,,,,,,,,,,,,,,,,,,,,,,,,,,164.80996742998832,None,,,,,,,,,,,,,,,,,164.39364835698507,None,j,0.37267549301031977,164.39364835698507,None,164.39364835698507,None,164.39364835698507,None,164.39364835698507,None,164.39364835698507,None,,,,,,,,,,,,,,,,,,,,,,4,001,,,2020_Sep_06_2018,reactive_intentional_encoding_looped,3.2.4,61.03029103354074,
images/left.png,f,instruction_images/antlers.jpg,instruction_images/oldBook.png,95,1,1,images/mannequin.jpg,images/julia_roberts_c.jpg,images/freedom_tower_c.jpg,images/dustin_hoffman_a.jpg,object-face,images/julia_roberts_c.jpg,images/newspaper_stack.png,,,,,,,,,,,,,,,,,,,,,,,,,,,,,,,,,,,,,,,,,,,,,,,,,,,,,,,,,,,,,,,,,,,,,0,0,0,0,36,2,110,1,,,,,,,,,,,,,,,,,,,,,,,,,,,,,,,,,165.49935712199658,None,,,,,,,,,,,,,,,,,165.3096974529908,None,f,0.16735324502224103,165.3096974529908,None,165.3096974529908,None,165.3096974529908,None,165.3096974529908,None,165.3096974529908,None,,,,,,,,,,,,,,,,,,,,,,4,001,,,2020_Sep_06_2018,reactive_intentional_encoding_looped,3.2.4,61.03029103354074,
images/right.png,j,instruction_images/bug_ladybug.png,instruction_images/button_plastic.png,85,1,1,images/mannequin.jpg,images/julia_roberts_c.jpg,images/freedom_tower_c.jpg,images/dustin_hoffman_a.jpg,object-face,images/julia_roberts_c.jpg,images/newspaper_stack.png,,,,,,,,,,,,,,,,,,,,,,,,,,,,,,,,,,,,,,,,,,,,,,,,,,,,,,,,,,,,,,,,,,,,,0,0,0,0,37,0,111,0,,,,,,,,,,,,,,,,,,,,,,,,,,,,,,,,,166.27697059098864,None,,,,,,,,,,,,,,,,,166.0108515699976,None,f,0.22513336900738068,166.0108515699976,None,166.0108515699976,None,166.0108515699976,None,166.0108515699976,None,166.0108515699976,None,,,,,,,,,,,,,,,,,,,,,,4,001,,,2020_Sep_06_2018,reactive_intentional_encoding_looped,3.2.4,61.03029103354074,
images/left.png,f,instruction_images/alpaca_fo.jpg,instruction_images/cake_cheese.png,75,1,1,images/mannequin.jpg,images/julia_roberts_c.jpg,images/freedom_tower_c.jpg,images/dustin_hoffman_a.jpg,object-face,images/julia_roberts_c.jpg,images/newspaper_stack.png,,,,,,,,,,,,,,,,,,,,,,,,,,,,,,,,,,,,,,,,,,,,,,,,,,,,,,,,,,,,,,,,,,,,,0,0,0,0,37,1,112,2,,,,,,,,,,,,,,,,,,,,,,,,,,,,,,,,,167.11525167999207,None,,,,,,,,,,,,,,,,,166.77923747399473,None,f,0.30680682000820525,166.77923747399473,None,166.77923747399473,None,166.77923747399473,None,166.77923747399473,None,166.77923747399473,None,,,,,,,,,,,,,,,,,,,,,,4,001,,,2020_Sep_06_2018,reactive_intentional_encoding_looped,3.2.4,61.03029103354074,
images/left.png,f,instruction_images/antlers.jpg,instruction_images/oldBook.png,95,1,1,images/mannequin.jpg,images/julia_roberts_c.jpg,images/freedom_tower_c.jpg,images/dustin_hoffman_a.jpg,object-face,images/julia_roberts_c.jpg,images/newspaper_stack.png,,,,,,,,,,,,,,,,,,,,,,,,,,,,,,,,,,,,,,,,,,,,,,,,,,,,,,,,,,,,,,,,,,,,,0,0,0,0,37,2,113,1,,,,,,,,,,,,,,,,,,,,,,,,,,,,,,,,,168.01003734898404,None,,,,,,,,,,,,,,,,,167.62726866998128,None,f,0.35126785197644494,167.62726866998128,None,167.62726866998128,None,167.62726866998128,None,167.62726866998128,None,167.62726866998128,None,,,,,,,,,,,,,,,,,,,,,,4,001,,,2020_Sep_06_2018,reactive_intentional_encoding_looped,3.2.4,61.03029103354074,
images/right.png,j,instruction_images/bug_ladybug.png,instruction_images/button_plastic.png,85,1,1,images/mannequin.jpg,images/julia_roberts_c.jpg,images/freedom_tower_c.jpg,images/dustin_hoffman_a.jpg,object-face,images/julia_roberts_c.jpg,images/newspaper_stack.png,,,,,,,,,,,,,,,,,,,,,,,,,,,,,,,,,,,,,,,,,,,,,,,,,,,,,,,,,,,,,,,,,,,,,0,0,0,0,38,0,114,0,,,,,,,,,,,,,,,,,,,,,,,,,,,,,,,,,168.83244313800242,None,,,,,,,,,,,,,,,,,168.51081392299966,None,j,0.2941675139882136,168.51081392299966,None,168.51081392299966,None,168.51081392299966,None,168.51081392299966,None,168.51081392299966,None,,,,,,,,,,,,,,,,,,,,,,4,001,,,2020_Sep_06_2018,reactive_intentional_encoding_looped,3.2.4,61.03029103354074,
images/left.png,f,instruction_images/antlers.jpg,instruction_images/oldBook.png,95,1,1,images/mannequin.jpg,images/julia_roberts_c.jpg,images/freedom_tower_c.jpg,images/dustin_hoffman_a.jpg,object-face,images/julia_roberts_c.jpg,images/newspaper_stack.png,,,,,,,,,,,,,,,,,,,,,,,,,,,,,,,,,,,,,,,,,,,,,,,,,,,,,,,,,,,,,,,,,,,,,0,0,0,0,38,1,115,1,,,,,,,,,,,,,,,,,,,,,,,,,,,,,,,,,169.63363241200568,None,,,,,,,,,,,,,,,,,169.3444290799962,None,f,0.2504412939888425,169.3444290799962,None,169.3444290799962,None,169.3444290799962,None,169.3444290799962,None,169.3444290799962,None,,,,,,,,,,,,,,,,,,,,,,4,001,,,2020_Sep_06_2018,reactive_intentional_encoding_looped,3.2.4,61.03029103354074,
images/left.png,f,instruction_images/alpaca_fo.jpg,instruction_images/cake_cheese.png,75,1,1,images/mannequin.jpg,images/julia_roberts_c.jpg,images/freedom_tower_c.jpg,images/dustin_hoffman_a.jpg,object-face,images/julia_roberts_c.jpg,images/newspaper_stack.png,,,,,,,,,,,,,,,,,,,,,,,,,,,,,,,,,,,,,,,,,,,,,,,,,,,,,,,,,,,,,,,,,,,,,0,0,0,0,38,2,116,2,,,,,,,,,,,,,,,,,,,,,,,,,,,,,,,,,170.46432543199626,None,,,,,,,,,,,,,,,,,170.14359193400014,None,f,0.2924590540060308,170.14359193400014,None,170.14359193400014,None,170.14359193400014,None,170.14359193400014,None,170.14359193400014,None,,,,,,,,,,,,,,,,,,,,,,4,001,,,2020_Sep_06_2018,reactive_intentional_encoding_looped,3.2.4,61.03029103354074,
images/left.png,f,instruction_images/alpaca_fo.jpg,instruction_images/cake_cheese.png,75,1,1,images/mannequin.jpg,images/julia_roberts_c.jpg,images/freedom_tower_c.jpg,images/dustin_hoffman_a.jpg,object-face,images/julia_roberts_c.jpg,images/newspaper_stack.png,,,,,,,,,,,,,,,,,,,,,,,,,,,,,,,,,,,,,,,,,,,,,,,,,,,,,,,,,,,,,,,,,,,,,0,0,0,0,39,0,117,2,,,,,,,,,,,,,,,,,,,,,,,,,,,,,,,,,171.44959171299706,None,,,,,,,,,,,,,,,,,170.9795376629918,None,f,0.44741640699794516,170.9795376629918,None,170.9795376629918,None,170.9795376629918,None,170.9795376629918,None,170.9795376629918,None,,,,,,,,,,,,,,,,,,,,,,4,001,,,2020_Sep_06_2018,reactive_intentional_encoding_looped,3.2.4,61.03029103354074,
images/left.png,f,instruction_images/antlers.jpg,instruction_images/oldBook.png,95,1,1,images/mannequin.jpg,images/julia_roberts_c.jpg,images/freedom_tower_c.jpg,images/dustin_hoffman_a.jpg,object-face,images/julia_roberts_c.jpg,images/newspaper_stack.png,,,,,,,,,,,,,,,,,,,,,,,,,,,,,,,,,,,,,,,,,,,,,,,,,,,,,,,,,,,,,,,,,,,,,0,0,0,0,39,1,118,1,,,,,,,,,,,,,,,,,,,,,,,,,,,,,,,,,172.33068300399464,None,,,,,,,,,,,,,,,,,171.95980093299295,None,f,0.3480603249918204,171.95980093299295,None,171.95980093299295,None,171.95980093299295,None,171.95980093299295,None,171.95980093299295,None,,,,,,,,,,,,,,,,,,,,,,4,001,,,2020_Sep_06_2018,reactive_intentional_encoding_looped,3.2.4,61.03029103354074,
