V1,trial,ImageA,location1,location2,location3,CategoryB,correct_image,ImageC,Arrow_direction,correct_answer,incidental_image1,incidental_image2,Time,instruction_intentional_encoding.thisRepN,instruction_intentional_encoding.thisTrialN,instruction_intentional_encoding.thisN,instruction_intentional_encoding.thisIndex,practice_trials_intentional_encoding.thisRepN,practice_trials_intentional_encoding.thisTrialN,practice_trials_intentional_encoding.thisN,practice_trials_intentional_encoding.thisIndex,trials.thisRepN,trials.thisTrialN,trials.thisN,trials.thisIndex,trials_4.thisRepN,trials_4.thisTrialN,trials_4.thisN,trials_4.thisIndex,trials_2.thisRepN,trials_2.thisTrialN,trials_2.thisN,trials_2.thisIndex,trials_5.thisRepN,trials_5.thisTrialN,trials_5.thisN,trials_5.thisIndex,trials_3.thisRepN,trials_3.thisTrialN,trials_3.thisN,trials_3.thisIndex,trials_6.thisRepN,trials_6.thisTrialN,trials_6.thisN,trials_6.thisIndex,trials_7.thisRepN,trials_7.thisTrialN,trials_7.thisN,trials_7.thisIndex,trials_8.thisRepN,trials_8.thisTrialN,trials_8.thisN,trials_8.thisIndex,trials_9.thisRepN,trials_9.thisTrialN,trials_9.thisN,trials_9.thisIndex,trials_10.thisRepN,trials_10.thisTrialN,trials_10.thisN,trials_10.thisIndex,trials_11.thisRepN,trials_11.thisTrialN,trials_11.thisN,trials_11.thisIndex,trials_12.thisRepN,trials_12.thisTrialN,trials_12.thisN,trials_12.thisIndex,trials_13.thisRepN,trials_13.thisTrialN,trials_13.thisN,trials_13.thisIndex,trials_15.thisRepN,trials_15.thisTrialN,trials_15.thisN,trials_15.thisIndex,trials_17.thisRepN,trials_17.thisTrialN,trials_17.thisN,trials_17.thisIndex,trials_16.thisRepN,trials_16.thisTrialN,trials_16.thisN,trials_16.thisIndex,trials_18.thisRepN,trials_18.thisTrialN,trials_18.thisN,trials_18.thisIndex,text_9.started,text_9.stopped,key_resp_3.keys,key_resp_3.rt,key_resp_3.started,key_resp_3.stopped,post_retreival_practice_intructions.started,post_retreival_practice_intructions.stopped,key_resp_4.keys,key_resp_4.rt,key_resp_4.started,key_resp_4.stopped,text_12.started,text_12.stopped,key_resp_6.keys,key_resp_6.rt,key_resp_6.started,key_resp_6.stopped,text_13.started,text_13.stopped,key_resp_7.keys,key_resp_7.rt,key_resp_7.started,key_resp_7.stopped,text_15.started,text_15.stopped,key_resp_8.keys,key_resp_8.rt,key_resp_8.started,key_resp_8.stopped,text_2.started,text_2.stopped,key_resp_14.keys,key_resp_14.rt,key_resp_14.started,key_resp_14.stopped,text_22.started,text_22.stopped,fixation_.started,fixation_.stopped,image_A.started,image_A.stopped,image_c.started,image_c.stopped,key_resp_15.keys,key_resp_15.rt,key_resp_15.started,key_resp_15.stopped,text_23.started,text_23.stopped,text_24.started,text_24.stopped,text_25.started,text_25.stopped,text_26.started,text_26.stopped,image_16.started,image_16.stopped,key_resp_9.keys,key_resp_9.rt,key_resp_9.started,key_resp_9.stopped,F_press.started,F_press.stopped,J_press.started,J_press.stopped,left_press.started,left_press.stopped,right_press.started,right_press.stopped,participant,sex,age,,date,expName,psychopyVersion,frameRate,
,,,,,,,,,,,,,,,,,,,,,,,,,,,,,,,,,,,,,,,,,,,,,,,,,,,,,,,,,,,,,,,,,,,,,,,,,,,,,,,,,,,,,,,,,,11.723265596985584,None,space,0.43280990299535915,12.199653897987446,None,,,,,,,,,,,,,,,,,,,,,,,,,,,,,,,,,,,,,,,,,,,,,,,,,,,,,,,,,,,,,,,,,4,001,,,2020_Sep_06_2213,reactive_intentional_encoding_looped,3.2.4,59.51867604246497,
,,,,,,,,,,,,,,,,,,,,,,,,,,,,,,,,,,,,,,,,,,,,,,,,,,,,,,,,,,,,,,,,,,,,,,,,,,,,,,,,,,,,,,,,,,,,,,,,12.677438121987507,None,space,0.25056664302246645,12.677438121987507,None,,,,,,,,,,,,,,,,,,,,,,,,,,,,,,,,,,,,,,,,,,,,,,,,,,,,,,,,,,,4,001,,,2020_Sep_06_2213,reactive_intentional_encoding_looped,3.2.4,59.51867604246497,
,,,,,,,,,,,,,,,,,,,,,,,,,,,,,,,,,,,,,,,,,,,,,,,,,,,,,,,,,,,,,,,,,,,,,,,,,,,,,,,,,,,,,,,,,,,,,,,,,,,,,,12.982650460995501,None,space,0.0076628149836324155,13.201112043985631,None,,,,,,,,,,,,,,,,,,,,,,,,,,,,,,,,,,,,,,,,,,,,,,,,,,,,,4,001,,,2020_Sep_06_2213,reactive_intentional_encoding_looped,3.2.4,59.51867604246497,
,,,,,,,,,,,,,,,,,,,,,,,,,,,,,,,,,,,,,,,,,,,,,,,,,,,,,,,,,,,,,,,,,,,,,,,,,,,,,,,,,,,,,,,,,,,,,,,,,,,,,,,,,,,,13.238861307996558,None,space,0.24493674500263296,13.238861307996558,None,,,,,,,,,,,,,,,,,,,,,,,,,,,,,,,,,,,,,,,,,,,,,,,4,001,,,2020_Sep_06_2213,reactive_intentional_encoding_looped,3.2.4,59.51867604246497,
,,,,,,,,,,,,,,,,,,,,,,,,,,,,,,,,,,,,,,,,,,,,,,,,,,,,,,,,,,,,,,,,,,,,,,,,,,,,,,,,,,,,,,,,,,,,,,,,,,,,,,13.55381077399943,None,space,0.011395898007322103,13.765360930003226,None,,,,,,,,,,,,,,,,,,,,,,,,,,,,,,,,,,,,,,,,,,,,,,,,,,,,,4,001,,,2020_Sep_06_2213,reactive_intentional_encoding_looped,3.2.4,59.51867604246497,
,,,,,,,,,,,,,,,,,,,,,,,,,,,,,,,,,,,,,,,,,,,,,,,,,,,,,,,,,,,,,,,,,,,,,,,,,,,,,,,,,,,,,,,,,,,,,,,,,,,,,,,,,,,,13.805911217001267,None,space,0.24796696298290044,13.805911217001267,None,,,,,,,,,,,,,,,,,,,,,,,,,,,,,,,,,,,,,,,,,,,,,,,4,001,,,2020_Sep_06_2213,reactive_intentional_encoding_looped,3.2.4,59.51867604246497,
,,,,,,,,,,,,,,,,,,,,,,,,,,,,,,,,,,,,,,,,,,,,,,,,,,,,,,,,,,,,,,,,,,,,,,,,,,,,,,,,,,,,,,,,,,,,,,,,,,,,,,14.116168428998208,None,space,0.006577563006430864,14.332380435982486,None,,,,,,,,,,,,,,,,,,,,,,,,,,,,,,,,,,,,,,,,,,,,,,,,,,,,,4,001,,,2020_Sep_06_2213,reactive_intentional_encoding_looped,3.2.4,59.51867604246497,
,,,,,,,,,,,,,,,,,,,,,,,,,,,,,,,,,,,,,,,,,,,,,,,,,,,,,,,,,,,,,,,,,,,,,,,,,,,,,,,,,,,,,,,,,,,,,,,,,,,,,,,,,,,,14.373431711981539,None,space,0.2655325300002005,14.373431711981539,None,,,,,,,,,,,,,,,,,,,,,,,,,,,,,,,,,,,,,,,,,,,,,,,4,001,,,2020_Sep_06_2213,reactive_intentional_encoding_looped,3.2.4,59.51867604246497,
,,,,,,,,,,,,,,,,,,,,,,,,,,,,,,,,,,,,,,,,,,,,,,,,,,,,,,,,,,,,,,,,,,,,,,,,,,,,,,,,,,,,,,,,,,,,,,,,,,,,,,,,,,,,,,,,,,14.672815734986216,None,space,0.23904611301259138,14.672815734986216,None,,,,,,,,,,,,,,,,,,,,,,,,,,,,,,,,,,,,,,,,,4,001,,,2020_Sep_06_2213,reactive_intentional_encoding_looped,3.2.4,59.51867604246497,
,,,,,,,,,,,,,,,,,,,,,,,,,,,,,,,,,,,,,,,,,,,,,,,,,,,,,,,,,,,,,,,,,,,,,,,,,,,,,,,,,,,,,,,,,,,,,,,,,,,,,,,,,,,,,,,,,,,,,,,,14.965895019005984,None,space,0.2326716710231267,14.965895019005984,None,,,,,,,,,,,,,,,,,,,,,,,,,,,,,,,,,,,4,001,,,2020_Sep_06_2213,reactive_intentional_encoding_looped,3.2.4,59.51867604246497,
1,1,images/mannequin.jpg,images/julia_roberts_c.jpg,images/freedom_tower_c.jpg,images/dustin_hoffman_a.jpg,object-face,images/julia_roberts_c.jpg,images/newspaper_stack.png,images/right.png,j,instruction_images/bug_ladybug.png,instruction_images/button_plastic.png,3,,,,,,,,,,,,,,,,,,,,,,,,,,,,,,,,,,,,,,,,,,,,,,,,,,,,,,,,,,,,,,,,,0,0,0,0,0,0,0,3,,,,,,,,,,,,,,,,,,,,,,,,,,,,,,,,,,,,,,,,,15.224285045987926,None,32.60328084399225,None,18.326721861987608,None,18.326721861987608,None,space,0.4839954850031063,18.326721861987608,None,18.326721861987608,None,18.326721861987608,None,18.326721861987608,None,18.326721861987608,None,32.31555921098334,None,j,0.2626329530030489,32.31555921098334,None,32.31555921098334,None,32.31555921098334,None,32.31555921098334,None,32.31555921098334,None,4,001,,,2020_Sep_06_2213,reactive_intentional_encoding_looped,3.2.4,59.51867604246497,
1,1,images/mannequin.jpg,images/julia_roberts_c.jpg,images/freedom_tower_c.jpg,images/dustin_hoffman_a.jpg,object-face,images/julia_roberts_c.jpg,images/newspaper_stack.png,images/right.png,j,instruction_images/bug_ladybug.png,instruction_images/button_plastic.png,3,,,,,,,,,,,,,,,,,,,,,,,,,,,,,,,,,,,,,,,,,,,,,,,,,,,,,,,,,,,,,,,,,0,0,0,0,0,1,1,0,,,,,,,,,,,,,,,,,,,,,,,,,,,,,,,,,,,,,,,,,,,40.61839761098963,None,,,,,,,,,,,,,,,,,40.54910590098007,None,j,0.049282318010227755,40.54910590098007,None,40.54910590098007,None,40.54910590098007,None,40.54910590098007,None,40.54910590098007,None,4,001,,,2020_Sep_06_2213,reactive_intentional_encoding_looped,3.2.4,59.51867604246497,
1,1,images/mannequin.jpg,images/julia_roberts_c.jpg,images/freedom_tower_c.jpg,images/dustin_hoffman_a.jpg,object-face,images/julia_roberts_c.jpg,images/newspaper_stack.png,images/left.png,f,instruction_images/alpaca_fo.jpg,instruction_images/cake_cheese.png,3,,,,,,,,,,,,,,,,,,,,,,,,,,,,,,,,,,,,,,,,,,,,,,,,,,,,,,,,,,,,,,,,,0,0,0,0,0,2,2,2,,,,,,,,,,,,,,,,,,,,,,,,,,,,,,,,,,,,,,,,,,,48.435437784995884,None,,,,,,,,,,,,,,,,,48.04915258398978,None,j,0.3514245010155719,48.04915258398978,None,48.04915258398978,None,48.04915258398978,None,48.04915258398978,None,48.04915258398978,None,4,001,,,2020_Sep_06_2213,reactive_intentional_encoding_looped,3.2.4,59.51867604246497,
1,1,images/mannequin.jpg,images/julia_roberts_c.jpg,images/freedom_tower_c.jpg,images/dustin_hoffman_a.jpg,object-face,images/julia_roberts_c.jpg,images/newspaper_stack.png,images/left.png,f,instruction_images/antlers.jpg,instruction_images/oldBook.png,3,,,,,,,,,,,,,,,,,,,,,,,,,,,,,,,,,,,,,,,,,,,,,,,,,,,,,,,,,,,,,,,,,0,0,0,0,0,3,3,1,,,,,,,,,,,,,,,,,,,,,,,,,,,,,,,,,,,,,,,,,,,61.10191737097921,None,,,,,,,,,,,,,,,,,60.63164881398552,None,j,0.4506311800214462,60.63164881398552,None,60.63164881398552,None,60.63164881398552,None,60.63164881398552,None,60.63164881398552,None,4,001,,,2020_Sep_06_2213,reactive_intentional_encoding_looped,3.2.4,59.51867604246497,
1,1,images/mannequin.jpg,images/julia_roberts_c.jpg,images/freedom_tower_c.jpg,images/dustin_hoffman_a.jpg,object-face,images/julia_roberts_c.jpg,images/newspaper_stack.png,,,,,,,,,,,,,,,,,,,,,,,,,,,,,,,,,,,,,,,,,,,,,,,,,,,,,,,,,,,,,,,,,,,,,,0,0,0,0,,,,,,,,,,,,,,,,,,,,,,,,,,,,,,,,,,,,,,,,,,,,,,,,,,,,,,,,,,,,,,,,,,,,,,,,,,,,,,,4,001,,,2020_Sep_06_2213,reactive_intentional_encoding_looped,3.2.4,59.51867604246497,
2,2,images/fan.png,images/giza_pyramids_c.jpg,images/fenway_park_a.jpg,images/dolly_parton_c.jpg,object-scene,images/giza_pyramids_c.jpg,images/pencilCase.png,images/left.png,f,instruction_images/antlers.jpg,instruction_images/oldBook.png,3,,,,,,,,,,,,,,,,,,,,,,,,,,,,,,,,,,,,,,,,,,,,,,,,,,,,,,,,,,,,,,,,,0,1,1,1,0,0,0,1,,,,,,,,,,,,,,,,,,,,,,,,,,,,,,,,,,,,,,,,,61.61503153498052,None,76.43243653597892,None,64.64894518800429,None,64.64894518800429,None,None,,64.64894518800429,None,64.64894518800429,None,64.64894518800429,None,64.64894518800429,None,64.64894518800429,None,76.36498276499333,None,j,0.04102217001491226,76.36498276499333,None,76.36498276499333,None,76.36498276499333,None,76.36498276499333,None,76.36498276499333,None,4,001,,,2020_Sep_06_2213,reactive_intentional_encoding_looped,3.2.4,59.51867604246497,
2,2,images/fan.png,images/giza_pyramids_c.jpg,images/fenway_park_a.jpg,images/dolly_parton_c.jpg,object-scene,images/giza_pyramids_c.jpg,images/pencilCase.png,images/right.png,j,instruction_images/bug_ladybug.png,instruction_images/button_plastic.png,3,,,,,,,,,,,,,,,,,,,,,,,,,,,,,,,,,,,,,,,,,,,,,,,,,,,,,,,,,,,,,,,,,0,1,1,1,0,1,1,0,,,,,,,,,,,,,,,,,,,,,,,,,,,,,,,,,,,,,,,,,,,84.14878746200702,None,,,,,,,,,,,,,,,,,83.99825844698353,None,j,0.11914351201266982,83.99825844698353,None,83.99825844698353,None,83.99825844698353,None,83.99825844698353,None,83.99825844698353,None,4,001,,,2020_Sep_06_2213,reactive_intentional_encoding_looped,3.2.4,59.51867604246497,
2,2,images/fan.png,images/giza_pyramids_c.jpg,images/fenway_park_a.jpg,images/dolly_parton_c.jpg,object-scene,images/giza_pyramids_c.jpg,images/pencilCase.png,images/left.png,f,instruction_images/alpaca_fo.jpg,instruction_images/cake_cheese.png,3,,,,,,,,,,,,,,,,,,,,,,,,,,,,,,,,,,,,,,,,,,,,,,,,,,,,,,,,,,,,,,,,,0,1,1,1,0,2,2,2,,,,,,,,,,,,,,,,,,,,,,,,,,,,,,,,,,,,,,,,,,,91.69771166000282,None,,,,,,,,,,,,,,,,,91.4135427029978,None,j,0.2607454380195122,91.4135427029978,None,91.4135427029978,None,91.4135427029978,None,91.4135427029978,None,91.4135427029978,None,4,001,,,2020_Sep_06_2213,reactive_intentional_encoding_looped,3.2.4,59.51867604246497,
2,2,images/fan.png,images/giza_pyramids_c.jpg,images/fenway_park_a.jpg,images/dolly_parton_c.jpg,object-scene,images/giza_pyramids_c.jpg,images/pencilCase.png,images/right.png,j,instruction_images/bug_ladybug.png,instruction_images/button_plastic.png,3,,,,,,,,,,,,,,,,,,,,,,,,,,,,,,,,,,,,,,,,,,,,,,,,,,,,,,,,,,,,,,,,,0,1,1,1,0,3,3,3,,,,,,,,,,,,,,,,,,,,,,,,,,,,,,,,,,,,,,,,,,,99.28348144199117,None,,,,,,,,,,,,,,,,,99.11399111399078,None,j,0.14587206300348043,99.11399111399078,None,99.11399111399078,None,99.11399111399078,None,99.11399111399078,None,99.11399111399078,None,4,001,,,2020_Sep_06_2213,reactive_intentional_encoding_looped,3.2.4,59.51867604246497,
2,2,images/fan.png,images/giza_pyramids_c.jpg,images/fenway_park_a.jpg,images/dolly_parton_c.jpg,object-scene,images/giza_pyramids_c.jpg,images/pencilCase.png,,,,,,,,,,,,,,,,,,,,,,,,,,,,,,,,,,,,,,,,,,,,,,,,,,,,,,,,,,,,,,,,,,,,,,0,1,1,1,,,,,,,,,,,,,,,,,,,,,,,,,,,,,,,,,,,,,,,,,,,,,,,,,,,,,,,,,,,,,,,,,,,,,,,,,,,,,,,4,001,,,2020_Sep_06_2213,reactive_intentional_encoding_looped,3.2.4,59.51867604246497,
,,,,,,,,,,,,,,,,,,,,,,,,,,,,,,,,,,,,,,,,,,,,,,,,,,,,,,,,,,,,,,,,,,,,,,,,,,,,,,,,,,,,,,,,,,,,,,,,,,,,,,,,,,,,,,,,,,,,,,,,,,,,,,99.79806705200463,None,102.29844455598504,None,,,,,,,,,,,,,,,,,,,,,,,,,,,,,,,,,,,,,,,
