instructions1,Instructions2,Image1,Image2,Image3,Image_4,position_1x,position_1y,position_2x,position_2y,J_key,K_key,L_key,yes_text,no_text,trial_in_list,image_a,location1,correct_category_pair,location2,location3,correct_image,List,trial_num,block,Trial,ImageA,ImageB,ImageC,CategoryB,ListNum,instruction_intentional_encoding.thisRepN,instruction_intentional_encoding.thisTrialN,instruction_intentional_encoding.thisN,instruction_intentional_encoding.thisIndex,practice_trials_intentional_encoding.thisRepN,practice_trials_intentional_encoding.thisTrialN,practice_trials_intentional_encoding.thisN,practice_trials_intentional_encoding.thisIndex,trials.thisRepN,trials.thisTrialN,trials.thisN,trials.thisIndex,trials_4.thisRepN,trials_4.thisTrialN,trials_4.thisN,trials_4.thisIndex,trials_2.thisRepN,trials_2.thisTrialN,trials_2.thisN,trials_2.thisIndex,trials_5.thisRepN,trials_5.thisTrialN,trials_5.thisN,trials_5.thisIndex,text.started,text.stopped,instructions_text2.started,instructions_text2.stopped,response.keys,response.rt,response.started,response.stopped,image1.started,image1.stopped,image2.started,image2.stopped,J_press_instructions.started,J_press_instructions.stopped,F_key_instruct.started,F_key_instruct.stopped,arrow.started,arrow.stopped,yes_press.started,yes_press.stopped,no_press.started,no_press.stopped,imageA.started,imageA.stopped,b_image.started,b_image.stopped,text_9.started,text_9.stopped,key_resp_3.keys,key_resp_3.rt,key_resp_3.started,key_resp_3.stopped,image_pair1.started,image_pair1.stopped,image_pair2.started,image_pair2.stopped,text_3.started,text_3.stopped,text_4.started,text_4.stopped,image_3.started,image_3.stopped,key_resp.keys,key_resp.rt,key_resp.started,key_resp.stopped,text_5.started,text_5.stopped,text_8.started,text_8.stopped,key_resp_2.keys,key_resp_2.rt,key_resp_2.started,key_resp_2.stopped,image.started,image.stopped,image_2.started,image_2.stopped,image_5.started,image_5.stopped,image_6.started,image_6.stopped,K.started,K.stopped,L.started,L.stopped,J.started,J.stopped,image_a_practice.started,image_a_practice.stopped,afc_test_practice.started,afc_test_practice.stopped,location1_practice.started,location1_practice.stopped,location2_practice.started,location2_practice.stopped,location3_practice.started,location3_practice.stopped,j_key_test_practice.started,j_key_test_practice.stopped,K_key_practice.started,K_key_practice.stopped,L_key_practice.started,L_key_practice.stopped,image_11.started,image_11.stopped,image_12.started,image_12.stopped,text_7.started,text_7.stopped,text_17.started,text_17.stopped,key_resp_13.keys,key_resp_13.started,key_resp_13.stopped,fixation_.started,fixation_.stopped,participant,sex,age,,date,expName,psychopyVersion,frameRate,
"Welcome to the memory game! In this game, you must learn which images go together.",Press space to continue!,None,None,None,None,0,0.3,0.0,-0.4, , , , , ,,,,,,,,,,,,,,,,,0,0,0,0,,,,,,,,,,,,,,,,,,,,,7.639020583010279,None,7.639020583010279,None,space,0.6941717479785439,7.639020583010279,None,7.639020583010279,None,7.639020583010279,None,7.585671954991994,None,7.585671954991994,None,7.585671954991994,None,7.585671954991994,None,7.585671954991994,None,,,,,,,,,,,,,,,,,,,,,,,,,,,,,,,,,,,,,,,,,,,,,,,,,,,,,,,,,,,,,,,,,,,,,,,,,,,,6,001,,,2020_Sep_05_1813,reactive_intentional_encoding_looped,3.2.4,60.99358353372757,
"You will see two images on the left and right side of the screen, like this.",Press space to continue!,instruction_images/jessica_alba.jpg,instruction_images/oldBook.png,None,None,0,0.3,0.0,-0.4, , , , , ,,,,,,,,,,,,,,,,,0,1,1,1,,,,,,,,,,,,,,,,,,,,,8.537841756013222,None,8.537841756013222,None,space,0.36934427698724903,8.537841756013222,None,8.537841756013222,None,8.537841756013222,None,8.384477543993853,None,8.384477543993853,None,8.384477543993853,None,8.384477543993853,None,8.384477543993853,None,,,,,,,,,,,,,,,,,,,,,,,,,,,,,,,,,,,,,,,,,,,,,,,,,,,,,,,,,,,,,,,,,,,,,,,,,,,,6,001,,,2020_Sep_05_1813,reactive_intentional_encoding_looped,3.2.4,60.99358353372757,
Your job is to remember that these images go together. ,Press space to continue!,instruction_images/jessica_alba.jpg,instruction_images/oldBook.png,None,None,0,0.3,0.0,-0.4, , , , , ,,,,,,,,,,,,,,,,,0,2,2,2,,,,,,,,,,,,,,,,,,,,,9.052854806010146,None,9.052854806010146,None,space,0.8752817329950631,9.052854806010146,None,9.052854806010146,None,9.052854806010146,None,8.985281300992938,None,8.985281300992938,None,8.985281300992938,None,8.985281300992938,None,8.985281300992938,None,,,,,,,,,,,,,,,,,,,,,,,,,,,,,,,,,,,,,,,,,,,,,,,,,,,,,,,,,,,,,,,,,,,,,,,,,,,,6,001,,,2020_Sep_05_1813,reactive_intentional_encoding_looped,3.2.4,60.99358353372757,
"You could link them through a story. For example, jessica alba likes books.",Press space to continue!,instruction_images/jessica_alba.jpg,instruction_images/oldBook.png,None,None,0,0.3,0.0,-0.4, , , , , ,,,,,,,,,,,,,,,,,0,3,3,3,,,,,,,,,,,,,,,,,,,,,10.070597926009214,None,10.070597926009214,None,space,1.1495189699926414,10.070597926009214,None,10.070597926009214,None,10.070597926009214,None,10.018747426016489,None,10.018747426016489,None,10.018747426016489,None,10.018747426016489,None,10.018747426016489,None,,,,,,,,,,,,,,,,,,,,,,,,,,,,,,,,,,,,,,,,,,,,,,,,,,,,,,,,,,,,,,,,,,,,,,,,,,,,6,001,,,2020_Sep_05_1813,reactive_intentional_encoding_looped,3.2.4,60.99358353372757,
"After you see the images, we will test your memory.",Press space to continue!,instruction_images/jessica_alba.jpg,instruction_images/oldBook.png,None,None,0,0.3,0.0,-0.4, , , , , ,,,,,,,,,,,,,,,,,0,4,4,4,,,,,,,,,,,,,,,,,,,,,11.352287495014025,None,11.352287495014025,None,space,1.5038597369857598,11.352287495014025,None,11.352287495014025,None,11.352287495014025,None,11.269807025004411,None,11.269807025004411,None,11.269807025004411,None,11.269807025004411,None,11.269807025004411,None,,,,,,,,,,,,,,,,,,,,,,,,,,,,,,,,,,,,,,,,,,,,,,,,,,,,,,,,,,,,,,,,,,,,,,,,,,,,6,001,,,2020_Sep_05_1813,reactive_intentional_encoding_looped,3.2.4,60.99358353372757,
"Get ready to see the images! Each pair will only last on the screen for a few seconds, so pay attention.",Press space to continue!,instruction_images/jessica_alba.jpg,instruction_images/oldBook.png,None,None,0,0.3,0.0,-0.4, , , , , ,,,,,,,,,,,,,,,,,0,5,5,5,,,,,,,,,,,,,,,,,,,,,13.033741141989594,None,13.033741141989594,None,space,0.8232472879753914,13.033741141989594,None,13.033741141989594,None,13.033741141989594,None,12.953032958001131,None,12.953032958001131,None,12.953032958001131,None,12.953032958001131,None,12.953032958001131,None,,,,,,,,,,,,,,,,,,,,,,,,,,,,,,,,,,,,,,,,,,,,,,,,,,,,,,,,,,,,,,,,,,,,,,,,,,,,6,001,,,2020_Sep_05_1813,reactive_intentional_encoding_looped,3.2.4,60.99358353372757,
We'll first do a practice to get you familiar with the game.,Press space to continue!,instruction_images/jessica_alba.jpg,instruction_images/oldBook.png,None,None,0,0.3,0.0,-0.4, , , , , ,,,,,,,,,,,,,,,,,0,6,6,6,,,,,,,,,,,,,,,,,,,,,13.98774111000239,None,13.98774111000239,None,space,0.48249035101616755,13.98774111000239,None,13.98774111000239,None,13.98774111000239,None,13.92182097901241,None,13.92182097901241,None,13.92182097901241,None,13.92182097901241,None,13.92182097901241,None,,,,,,,,,,,,,,,,,,,,,,,,,,,,,,,,,,,,,,,,,,,,,,,,,,,,,,,,,,,,,,,,,,,,,,,,,,,,6,001,,,2020_Sep_05_1813,reactive_intentional_encoding_looped,3.2.4,60.99358353372757,
"When you're ready to start the practice, press space!",Press space to continue!,None,None,None,None,0,0.0,None,None, , , , , ,,,,,,,,,,,,,,,,,0,7,7,7,,,,,,,,,,,,,,,,,,,,,14.566991602012422,None,14.566991602012422,None,space,2.353957454994088,14.566991602012422,None,14.566991602012422,None,14.566991602012422,None,14.51876140999957,None,14.51876140999957,None,14.51876140999957,None,14.51876140999957,None,14.51876140999957,None,,,,,,,,,,,,,,,,,,,,,,,,,,,,,,,,,,,,,,,,,,,,,,,,,,,,,,,,,,,,,,,,,,,,,,,,,,,,6,001,,,2020_Sep_05_1813,reactive_intentional_encoding_looped,3.2.4,60.99358353372757,
,,,,,,,,,,,,,,,1,images/giftbow01.png,images/willie_nelson_b.jpg,object-face,images/electricoutlet.png,images/chick.jpg,images/willie_nelson_b.jpg,0,0,practice,,,,,,,,,,,0,0,0,0,,,,,,,,,,,,,,,,,,,,,,,,,,,,,,,,,,,,,,,17.016925225994783,None,17.016925225994783,None,,,,,,,,,,,,,,,,,,,,,,,,,,,,,,,,,,,,,,,,,,,,,,,,,,,,,,,,,,,,,,,,,,,,,,,,6,001,,,2020_Sep_05_1813,reactive_intentional_encoding_looped,3.2.4,60.99358353372757,
,,,,,,,,,,,,,,,2,images/globe.png,images/earrings_dangling.jpg,object-scene,images/wrigley_field_b.jpg,images/barrel.jpg,images/wrigley_field_b.jpg,0,0,practice,,,,,,,,,,,0,1,1,1,,,,,,,,,,,,,,,,,,,,,,,,,,,,,,,,,,,,,,,17.1509760459885,None,17.1509760459885,None,,,,,,,,,,,,,,,,,,,,,,,,,,,,,,,,,,,,,,,,,,,,,,,,,,,,,,,,,,,,,,,,,,,,,,,,6,001,,,2020_Sep_05_1813,reactive_intentional_encoding_looped,3.2.4,60.99358353372757,
,,,,,,,,,,,,,,,3,images/glassBall.jpg,images/westminster_abbey_a.jpg,object-scene,images/beetle.png,images/statue_of_liberty.jpg,images/westminster_abbey_a.jpg,0,0,practice,,,,,,,,,,,0,2,2,2,,,,,,,,,,,,,,,,,,,,,,,,,,,,,,,,,,,,,,,17.237789103004616,None,17.237789103004616,None,,,,,,,,,,,,,,,,,,,,,,,,,,,,,,,,,,,,,,,,,,,,,,,,,,,,,,,,,,,,,,,,,,,,,,,,6,001,,,2020_Sep_05_1813,reactive_intentional_encoding_looped,3.2.4,60.99358353372757,
,,,,,,,,,,,,,,,4,images/gazebo_wooden.png,images/ray_romano.jpg,object-face,images/john_stamos.jpg,images/natalie_portman.jpg,images/natalie_portman.jpg,0,0,practice,,,,,,,,,,,0,3,3,3,,,,,,,,,,,,,,,,,,,,,,,,,,,,,,,,,,,,,,,17.350945234007668,None,17.350945234007668,None,,,,,,,,,,,,,,,,,,,,,,,,,,,,,,,,,,,,,,,,,,,,,,,,,,,,,,,,,,,,,,,,,,,,,,,,6,001,,,2020_Sep_05_1813,reactive_intentional_encoding_looped,3.2.4,60.99358353372757,
,,,,,,,,,,,,,,,5,images/helicopter.jpg,images/bench_park.png,object-face,images/bird_parrot.png,images/julia_louis_dreyfus.jpg,images/julia_louis_dreyfus.jpg,0,0,practice,,,,,,,,,,,0,4,4,4,,,,,,,,,,,,,,,,,,,,,,,,,,,,,,,,,,,,,,,17.43333203799557,None,17.43333203799557,None,,,,,,,,,,,,,,,,,,,,,,,,,,,,,,,,,,,,,,,,,,,,,,,,,,,,,,,,,,,,,,,,,,,,,,,,6,001,,,2020_Sep_05_1813,reactive_intentional_encoding_looped,3.2.4,60.99358353372757,
,,,,,,,,,,,,,,,,,,,,,,,,,,,,,,,,,,,,,,,,,,,,,,,,,,,,,,,,,,,,,,,,,,,,,,,,,,,,,,,,,17.48621694301255,None,space,8.582156867021695,17.952694172010524,None,,,,,,,,,,,,,,,,,,,,,,,,,,,,,,,,,,,,,,,,,,,,,,,,,,,,,,,,,,,,,,,,,,6,001,,,2020_Sep_05_1813,reactive_intentional_encoding_looped,3.2.4,60.99358353372757,
,,,,,,,,,,,,,,,,,,,,,,,,,1,images/sundae_banana.jpg,images/eiffel_tower_c.jpg,images/mitten.png,object-scene,None,,,,,,,,,0,0,0,0,,,,,,,,,,,,,,,,,,,,,,,,,,,,,,,,,,,,,,,,,,,,,27.069442817999516,None,27.069442817999516,None,,,,,,,,,,,,,,,,,,,,,,,,,,,,,,,,,,,,,,,,,,,,,,,,,,,,,,,,,,,,,,6,001,,,2020_Sep_05_1813,reactive_intentional_encoding_looped,3.2.4,60.99358353372757,
,,,,,,,,,,,,,,,,,,,,,,,,,2,images/castle_sand.png,images/gwen_stefani_c.jpg,images/mask_hockeygoalie.png,object-face,None,,,,,,,,,0,1,1,1,,,,,,,,,,,,,,,,,,,,,,,,,,,,,,,,,,,,,,,,,,,,,28.069836620008573,None,28.069836620008573,None,,,,,,,,,,,,,,,,,,,,,,,,,,,,,,,,,,,,,,,,,,,,,,,,,,,,,,,,,,,,,,6,001,,,2020_Sep_05_1813,reactive_intentional_encoding_looped,3.2.4,60.99358353372757,
,,,,,,,,,,,,,,,,,,,,,,,,,3,images/checkers_board.png,images/golden_gate_bridge_b.jpg,images/mop.png,object-scene,None,,,,,,,,,0,2,2,2,,,,,,,,,,,,,,,,,,,,,,,,,,,,,,,,,,,,,,,,,,,,,29.070222169015324,None,29.070222169015324,None,,,,,,,,,,,,,,,,,,,,,,,,,,,,,,,,,,,,,,,,,,,,,,,,,,,,,,,,,,,,,,6,001,,,2020_Sep_05_1813,reactive_intentional_encoding_looped,3.2.4,60.99358353372757,
,,,,,,,,,,,,,,,,,,,,,,,,,4,images/figurine_ballerina.jpg,images/courtney_cox_c.jpg,images/pan_muffin.png,object-face,None,,,,,,,,,0,3,3,3,,,,,,,,,,,,,,,,,,,,,,,,,,,,,,,,,,,,,,,,,,,,,30.085516118007945,None,30.085516118007945,None,,,,,,,,,,,,,,,,,,,,,,,,,,,,,,,,,,,,,,,,,,,,,,,,,,,,,,,,,,,,,,6,001,,,2020_Sep_05_1813,reactive_intentional_encoding_looped,3.2.4,60.99358353372757,
,,,,,,,,,,,,,,,,,,,,,,,,,5,images/flute_wooden.jpg,images/jimmy_fallon.jpg,images/mechanic.jpg,object-face,None,,,,,,,,,0,4,4,4,,,,,,,,,,,,,,,,,,,,,,,,,,,,,,,,,,,,,,,,,,,,,31.070030350005254,None,31.070030350005254,None,,,,,,,,,,,,,,,,,,,,,,,,,,,,,,,,,,,,,,,,,,,,,,,,,,,,,,,,,,,,,,6,001,,,2020_Sep_05_1813,reactive_intentional_encoding_looped,3.2.4,60.99358353372757,
,,,,,,,,,,,,,,,,,,,,,,,,,6,images/fuzzydice.jpg,images/ellen_degeneres_b.jpg,images/soap.png,object-face,None,,,,,,,,,0,5,5,5,,,,,,,,,,,,,,,,,,,,,,,,,,,,,,,,,,,,,,,,,,,,,32.05319465100183,None,32.05319465100183,None,,,,,,,,,,,,,,,,,,,,,,,,,,,,,,,,,,,,,,,,,,,,,,,,,,,,,,,,,,,,,,6,001,,,2020_Sep_05_1813,reactive_intentional_encoding_looped,3.2.4,60.99358353372757,
,,,,,,,,,,,,,,,,,,,,,,,,,7,images/dog_toy.png,images/queen_elizabeth_a.jpg,images/paper towel.jpg,object-face,None,,,,,,,,,0,6,6,6,,,,,,,,,,,,,,,,,,,,,,,,,,,,,,,,,,,,,,,,,,,,,33.06964820000576,None,33.06964820000576,None,,,,,,,,,,,,,,,,,,,,,,,,,,,,,,,,,,,,,,,,,,,,,,,,,,,,,,,,,,,,,,6,001,,,2020_Sep_05_1813,reactive_intentional_encoding_looped,3.2.4,60.99358353372757,
,,,,,,,,,,,,,,,,,,,,,,,,,8,images/champagne.jpg,images/arches_national_park_a.jpg,images/noisemaker.jpg,object-scene,None,,,,,,,,,0,7,7,7,,,,,,,,,,,,,,,,,,,,,,,,,,,,,,,,,,,,,,,,,,,,,34.05342731400742,None,34.05342731400742,None,,,,,,,,,,,,,,,,,,,,,,,,,,,,,,,,,,,,,,,,,,,,,,,,,,,,,,,,,,,,,,6,001,,,2020_Sep_05_1813,reactive_intentional_encoding_looped,3.2.4,60.99358353372757,
,,,,,,,,,,,,,,,,,,,,,,,,,9,images/fan.png,images/giza_pyramids_c.jpg,images/pencilCase.png,object-scene,None,,,,,,,,,0,8,8,8,,,,,,,,,,,,,,,,,,,,,,,,,,,,,,,,,,,,,,,,,,,,,35.048240892007016,None,35.048240892007016,None,,,,,,,,,,,,,,,,,,,,,,,,,,,,,,,,,,,,,,,,,,,,,,,,,,,,,,,,,,,,,,6,001,,,2020_Sep_05_1813,reactive_intentional_encoding_looped,3.2.4,60.99358353372757,
,,,,,,,,,,,,,,,,,,,,,,,,,10,images/mannequin.jpg,images/julia_roberts_c.jpg,images/newspaper_stack.png,object-face,None,,,,,,,,,0,9,9,9,,,,,,,,,,,,,,,,,,,,,,,,,,,,,,,,,,,,,,,,,,,,,36.04801557099563,35.56484214900411,36.04801557099563,35.56484214900411,,,,,,,,,,,,,,,,,,,,,,,,,,,,,,,,,,,,,,,,,,,,,,,,,,,,,,,,,,,,,,6,001,,,2020_Sep_05_1813,reactive_intentional_encoding_looped,3.2.4,60.99358353372757,
,,,,,,,,,,,,,,,,,,,,,,,,,11,images/flipflopsBlue.png,images/flatiron_building_b.jpg,images/paddle.png,object-scene,None,,,,,,,,,0,10,10,10,,,,,,,,,,,,,,,,,,,,,,,,,,,,,,,,,,,,,,,,,,,,,37.04817895201268,36.57019382499857,37.04817895201268,36.57019382499857,,,,,,,,,,,,,,,,,,,,,,,,,,,,,,,,,,,,,,,,,,,,,,,,,,,,,,,,,,,,,,6,001,,,2020_Sep_05_1813,reactive_intentional_encoding_looped,3.2.4,60.99358353372757,
,,,,,,,,,,,,,,,,,,,,,,,,,12,images/bib.png,images/glacier_national_park_c.jpg,images/paintcan.jpg,object-scene,None,,,,,,,,,0,11,11,11,,,,,,,,,,,,,,,,,,,,,,,,,,,,,,,,,,,,,,,,,,,,,38.053125306003494,37.570095358998515,38.053125306003494,37.570095358998515,,,,,,,,,,,,,,,,,,,,,,,,,,,,,,,,,,,,,,,,,,,,,,,,,,,,,,,,,,,,,,6,001,,,2020_Sep_05_1813,reactive_intentional_encoding_looped,3.2.4,60.99358353372757,
Great job! Now we will see how well you remember which images go together.,Press space to continue!,None,None,None,None,0,0.3,0.0,-0.4, , , , , ,,,,,,,,,,,,,,,,,,,,,,,,,,,,,0,0,0,0,,,,,,,,,,,,,,,,,,,,,,,,,,,,,,,,,,,,,,,,,,,,,38.615088210994145,None,38.615088210994145,None,38.615088210994145,None,space,3.202179937012261,38.647195272002136,None,,,,,,,,,,,,,,,,,,,,,,,,,,,,,,,,,,,,,,,,,,,,,,,,,,,,6,001,,,2020_Sep_05_1813,reactive_intentional_encoding_looped,3.2.4,60.99358353372757,
"You will first see one image, like below. Your job is to recall the image that it was paired with when you see this image.",Press space to continue!,instruction_images/jessica_alba.jpg,None,None,None,0,0.3,0.0,-0.4, , , , , ,,,,,,,,,,,,,,,,,,,,,,,,,,,,,0,1,1,1,,,,,,,,,,,,,,,,,,,,,,,,,,,,,,,,,,,,,,,,,,,,,41.93088532501133,None,41.93088532501133,None,41.93088532501133,None,space,2.2191349070053548,41.97580304800067,None,,,,,,,,,,,,,,,,,,,,,,,,,,,,,,,,,,,,,,,,,,,,,,,,,,,,6,001,,,2020_Sep_05_1813,reactive_intentional_encoding_looped,3.2.4,60.99358353372757,
"Here, you should recall the book.",Press space to continue!,instruction_images/jessica_alba.jpg,None,None,None,0,0.3,0.0,-0.4,J,K,L, , ,,,,,,,,,,,,,,,,,,,,,,,,,,,,,0,2,2,2,,,,,,,,,,,,,,,,,,,,,,,,,,,,,,,,,,,,,,,,,,,,,44.25423257800867,None,44.25423257800867,None,44.25423257800867,None,space,0.8873202549875714,44.287439965002704,None,,,,,,,,,,,,,,,,,,,,,,,,,,,,,,,,,,,,,,,,,,,,,,,,,,,,6,001,,,2020_Sep_05_1813,reactive_intentional_encoding_looped,3.2.4,60.99358353372757,
"Then, you will see 3 other images and your job is to select the correct image pair. Use the keys 'J', 'K', or 'L' to indicate your choice.",Press space to continue!,instruction_images/jessica_alba.jpg,instruction_images/oldBook.png,instruction_images/alpaca_fo.jpg,instruction_images/antlers.jpg,0,0.3,0.0,-0.4,J,K,L, , ,,,,,,,,,,,,,,,,,,,,,,,,,,,,,,,,,0,0,0,0,,,,,,,,,,,,,,,,,,,,,,,,,,,,,,,,,,,,,,,,,,,,,,,,,,,45.364424575993326,None,45.364424575993326,None,space,2.3881120459991507,45.61457353300648,None,45.364424575993326,None,45.364424575993326,None,45.364424575993326,None,45.364424575993326,None,45.364424575993326,None,45.364424575993326,None,45.364424575993326,None,,,,,,,,,,,,,,,,,,,,,,,,,,,,,,6,001,,,2020_Sep_05_1813,reactive_intentional_encoding_looped,3.2.4,60.99358353372757,
"Here, you should press 'L' because the woman, Jessica Alba, was paired with the book.",Press 'L' to continue!,None,instruction_images/oldBook.png,instruction_images/alpaca_fo.jpg,instruction_images/antlers.jpg,0,0.3,0.0,-0.4,J,K,L, , ,,,,,,,,,,,,,,,,,,,,,,,,,,,,,,,,,0,1,1,1,,,,,,,,,,,,,,,,,,,,,,,,,,,,,,,,,,,,,,,,,,,,,,,,,,,48.216344640997704,None,48.216344640997704,None,space,1.213343651004834,48.50049460600712,None,48.216344640997704,None,48.216344640997704,None,48.216344640997704,None,48.216344640997704,None,48.216344640997704,None,48.216344640997704,None,48.216344640997704,None,,,,,,,,,,,,,,,,,,,,,,,,,,,,,,6,001,,,2020_Sep_05_1813,reactive_intentional_encoding_looped,3.2.4,60.99358353372757,
This portion is timed. Respond quickly and think of your answer as soon as you see the first image. ,Press space to continue!,None,instruction_images/oldBook.png,instruction_images/alpaca_fo.jpg,instruction_images/antlers.jpg,0,0.3,0.0,-0.4,J,K,L, , ,,,,,,,,,,,,,,,,,,,,,,,,,,,,,,,,,0,2,2,2,,,,,,,,,,,,,,,,,,,,,,,,,,,,,,,,,,,,,,,,,,,,,,,,,,,49.83972815799643,None,49.83972815799643,None,space,0.15753096400294453,50.12507809599629,None,49.83972815799643,None,49.83972815799643,None,49.83972815799643,None,49.83972815799643,None,49.83972815799643,None,49.83972815799643,None,49.83972815799643,None,,,,,,,,,,,,,,,,,,,,,,,,,,,,,,6,001,,,2020_Sep_05_1813,reactive_intentional_encoding_looped,3.2.4,60.99358353372757,
"These keyboard options will remain on the screen under each image as a reminder throughout the task. If you don't know the answer, take a guess. You will then be shown the correct image. Re-study the image pairs because you will be tested a second time.",Press space to continue!,None,instruction_images/oldBook.png,instruction_images/alpaca_fo.jpg,instruction_images/antlers.jpg,0,0.3,0.0,-0.4,J,K,L, , ,,,,,,,,,,,,,,,,,,,,,,,,,,,,,,,,,0,3,3,3,,,,,,,,,,,,,,,,,,,,,,,,,,,,,,,,,,,,,,,,,,,,,,,,,,,50.50272308601416,None,50.50272308601416,None,space,0.5667829289741348,50.75777950399788,None,50.50272308601416,None,50.50272308601416,None,50.50272308601416,None,50.50272308601416,None,50.50272308601416,None,50.50272308601416,None,50.50272308601416,None,,,,,,,,,,,,,,,,,,,,,,,,,,,,,,6,001,,,2020_Sep_05_1813,reactive_intentional_encoding_looped,3.2.4,60.99358353372757,
"First, we'll do a practice. Put your right hand on the keyboard and get ready to respond! When you're ready to start, press space.",Press space to continue!,None,instruction_images/oldBook.png,instruction_images/alpaca_fo.jpg,instruction_images/antlers.jpg,0,0.3,0.0,-0.4, , , , , ,,,,,,,,,,,,,,,,,,,,,,,,,,,,,,,,,0,4,4,4,,,,,,,,,,,,,,,,,,,,,,,,,,,,,,,,,,,,,,,,,,,,,,,,,,,51.496543268993264,None,51.496543268993264,None,space,0.24808772999676876,51.79644326001289,None,51.496543268993264,None,51.496543268993264,None,51.496543268993264,None,51.496543268993264,None,51.496543268993264,None,51.496543268993264,None,51.496543268993264,None,,,,,,,,,,,,,,,,,,,,,,,,,,,,,,6,001,,,2020_Sep_05_1813,reactive_intentional_encoding_looped,3.2.4,60.99358353372757,
,,,,,,,,,,,,,,,1,images/giftbow01.png,images/willie_nelson_b.jpg,object-face,images/electricoutlet.png,images/chick.jpg,images/willie_nelson_b.jpg,0,0,practice,,,,,,,,,,,,,,,,,,,,,,,,,,,0,0,0,0,,,,,,,,,,,,,,,,,,,,,,,,,,,,,,,,,,,,,,,,,,,,,,,,,,,,,,,,,,,,,,,,,,,,,53.18180525599746,55.19667946299887,55.680191768013174,57.6798009040067,55.680191768013174,57.6798009040067,55.680191768013174,57.6798009040067,55.680191768013174,57.6798009040067,55.680191768013174,57.6798009040067,55.680191768013174,57.6798009040067,55.680191768013174,57.6798009040067,58.179232730995864,None,58.179232730995864,None,53.18180525599746,55.19667946299887,58.179232730995864,None,None,55.680191768013174,57.6798009040067,61.169581918016775,None,6,001,,,2020_Sep_05_1813,reactive_intentional_encoding_looped,3.2.4,60.99358353372757,
,,,,,,,,,,,,,,,2,images/globe.png,images/earrings_dangling.jpg,object-scene,images/wrigley_field_b.jpg,images/barrel.jpg,images/wrigley_field_b.jpg,0,0,practice,,,,,,,,,,,,,,,,,,,,,,,,,,,0,1,1,1,,,,,,,,,,,,,,,,,,,,,,,,,,,,,,,,,,,,,,,,,,,,,,,,,,,,,,,,,,,,,,,,,,,,,62.502996802009875,64.50198912800988,65.00295251898933,67.00292289399658,65.00295251898933,67.00292289399658,65.00295251898933,67.00292289399658,65.00295251898933,67.00292289399658,65.00295251898933,67.00292289399658,65.00295251898933,67.00292289399658,65.00295251898933,67.00292289399658,67.50296256600996,None,67.50296256600996,None,62.502996802009875,64.50198912800988,67.50296256600996,None,None,65.00295251898933,67.00292289399658,70.4525504700141,None,6,001,,,2020_Sep_05_1813,reactive_intentional_encoding_looped,3.2.4,60.99358353372757,
