instructions1,Instructions2,Image1,Image2,Image3,Image_4,position_1x,position_1y,position_2x,position_2y,J_key,K_key,L_key,yes_text,no_text,Image,image_type,category,trial_number,pair_indicator,instruction_intentional_encoding.thisRepN,instruction_intentional_encoding.thisTrialN,instruction_intentional_encoding.thisN,instruction_intentional_encoding.thisIndex,practice_trials_intentional_encoding.thisRepN,practice_trials_intentional_encoding.thisTrialN,practice_trials_intentional_encoding.thisN,practice_trials_intentional_encoding.thisIndex,trials.thisRepN,trials.thisTrialN,trials.thisN,trials.thisIndex,trials_4.thisRepN,trials_4.thisTrialN,trials_4.thisN,trials_4.thisIndex,trials_2.thisRepN,trials_2.thisTrialN,trials_2.thisN,trials_2.thisIndex,trials_5.thisRepN,trials_5.thisTrialN,trials_5.thisN,trials_5.thisIndex,trials_3.thisRepN,trials_3.thisTrialN,trials_3.thisN,trials_3.thisIndex,trials_6.thisRepN,trials_6.thisTrialN,trials_6.thisN,trials_6.thisIndex,trials_7.thisRepN,trials_7.thisTrialN,trials_7.thisN,trials_7.thisIndex,trials_8.thisRepN,trials_8.thisTrialN,trials_8.thisN,trials_8.thisIndex,trials_9.thisRepN,trials_9.thisTrialN,trials_9.thisN,trials_9.thisIndex,trials_10.thisRepN,trials_10.thisTrialN,trials_10.thisN,trials_10.thisIndex,trials_11.thisRepN,trials_11.thisTrialN,trials_11.thisN,trials_11.thisIndex,trials_12.thisRepN,trials_12.thisTrialN,trials_12.thisN,trials_12.thisIndex,trials_13.thisRepN,trials_13.thisTrialN,trials_13.thisN,trials_13.thisIndex,trials_15.thisRepN,trials_15.thisTrialN,trials_15.thisN,trials_15.thisIndex,trials_18.thisRepN,trials_18.thisTrialN,trials_18.thisN,trials_18.thisIndex,trials_17.thisRepN,trials_17.thisTrialN,trials_17.thisN,trials_17.thisIndex,trials_19.thisRepN,trials_19.thisTrialN,trials_19.thisN,trials_19.thisIndex,trials_20.thisRepN,trials_20.thisTrialN,trials_20.thisN,trials_20.thisIndex,trials_21.thisRepN,trials_21.thisTrialN,trials_21.thisN,trials_21.thisIndex,text_9.started,text_9.stopped,key_resp_3.keys,key_resp_3.rt,key_resp_3.started,key_resp_3.stopped,post_retreival_practice_intructions.started,post_retreival_practice_intructions.stopped,key_resp_4.keys,key_resp_4.rt,key_resp_4.started,key_resp_4.stopped,text_12.started,text_12.stopped,key_resp_6.keys,key_resp_6.rt,key_resp_6.started,key_resp_6.stopped,text_13.started,text_13.stopped,key_resp_7.keys,key_resp_7.rt,key_resp_7.started,key_resp_7.stopped,text_15.started,text_15.stopped,key_resp_8.keys,key_resp_8.rt,key_resp_8.started,key_resp_8.stopped,text_2.started,text_2.stopped,key_resp_14.keys,key_resp_14.rt,key_resp_14.started,key_resp_14.stopped,text_14.started,text_14.stopped,pressspace.started,pressspace.stopped,key_resp_16.keys,key_resp_16.rt,key_resp_16.started,key_resp_16.stopped,image_17.started,image_17.stopped,Jkey.started,Jkey.stopped,F_key.started,F_key.stopped,oldText.started,oldText.stopped,newtext.started,newtext.stopped,text_27.started,text_27.stopped,key_resp_18.keys,key_resp_18.rt,key_resp_18.started,key_resp_18.stopped,image_oldnew.started,image_oldnew.stopped,imageabc.started,imageabc.stopped,key_resp_17.keys,key_resp_17.started,key_resp_17.stopped,Jkey_2.started,Jkey_2.stopped,F_key_2.started,F_key_2.stopped,old.started,old.stopped,newtext_2.started,newtext_2.stopped,fixation_.started,fixation_.stopped,participant,sex,age,,date,expName,psychopyVersion,frameRate,
,,,,,,,,,,,,,,,,,,,,,,,,,,,,,,,,,,,,,,,,,,,,,,,,,,,,,,,,,,,,,,,,,,,,,,,,,,,,,,,,,,,,,,,,,,,,,,,,,,,,,,,,9.41188383899862,None,space,0.12518362599075772,9.89483102801023,None,,,,,,,,,,,,,,,,,,,,,,,,,,,,,,,,,,,,,,,,,,,,,,,,,,,,,,,,,,,,,,,,,,,,,,,,6,001,,,2020_Sep_07_1707,reactive_intentional_encoding_looped,3.2.4,59.849509839529254,
,,,,,,,,,,,,,,,,,,,,,,,,,,,,,,,,,,,,,,,,,,,,,,,,,,,,,,,,,,,,,,,,,,,,,,,,,,,,,,,,,,,,,,,,,,,,,,,,,,,,,,,,,,,,,,10.078040769993095,None,space,0.24310662699281238,10.078040769993095,None,,,,,,,,,,,,,,,,,,,,,,,,,,,,,,,,,,,,,,,,,,,,,,,,,,,,,,,,,,,,,,,,,,6,001,,,2020_Sep_07_1707,reactive_intentional_encoding_looped,3.2.4,59.849509839529254,
,,,,,,,,,,,,,,,,,,,,,,,,,,,,,,,,,,,,,,,,,,,,,,,,,,,,,,,,,,,,,,,,,,,,,,,,,,,,,,,,,,,,,,,,,,,,,,,,,,,,,,,,,,,,,,,,,,,,10.398368861002382,None,space,0.012089363997802138,10.597838312998647,None,,,,,,,,,,,,,,,,,,,,,,,,,,,,,,,,,,,,,,,,,,,,,,,,,,,,,,,,,,,,6,001,,,2020_Sep_07_1707,reactive_intentional_encoding_looped,3.2.4,59.849509839529254,
,,,,,,,,,,,,,,,,,,,,,,,,,,,,,,,,,,,,,,,,,,,,,,,,,,,,,,,,,,,,,,,,,,,,,,,,,,,,,,,,,,,,,,,,,,,,,,,,,,,,,,,,,,,,,,,,,,,,,,,,,,10.644558460015105,None,space,0.2766325550037436,10.644558460015105,None,,,,,,,,,,,,,,,,,,,,,,,,,,,,,,,,,,,,,,,,,,,,,,,,,,,,,,6,001,,,2020_Sep_07_1707,reactive_intentional_encoding_looped,3.2.4,59.849509839529254,
,,,,,,,,,,,,,,,,,,,,,,,,,,,,,,,,,,,,,,,,,,,,,,,,,,,,,,,,,,,,,,,,,,,,,,,,,,,,,,,,,,,,,,,,,,,,,,,,,,,,,,,,,,,,,,,,,,,,10.998069116001716,None,space,0.2585374529880937,11.19731903000502,None,,,,,,,,,,,,,,,,,,,,,,,,,,,,,,,,,,,,,,,,,,,,,,,,,,,,,,,,,,,,6,001,,,2020_Sep_07_1707,reactive_intentional_encoding_looped,3.2.4,59.849509839529254,
,,,,,,,,,,,,,,,,,,,,,,,,,,,,,,,,,,,,,,,,,,,,,,,,,,,,,,,,,,,,,,,,,,,,,,,,,,,,,,,,,,,,,,,,,,,,,,,,,,,,,,,,,,,,,,,,,,,,,,,,,,11.493904005008517,None,space,0.2790027800074313,11.493904005008517,None,,,,,,,,,,,,,,,,,,,,,,,,,,,,,,,,,,,,,,,,,,,,,,,,,,,,,,6,001,,,2020_Sep_07_1707,reactive_intentional_encoding_looped,3.2.4,59.849509839529254,
,,,,,,,,,,,,,,,,,,,,,,,,,,,,,,,,,,,,,,,,,,,,,,,,,,,,,,,,,,,,,,,,,,,,,,,,,,,,,,,,,,,,,,,,,,,,,,,,,,,,,,,,,,,,,,,,,,,,11.83081284101354,None,space,0.2923616849875543,12.04747734600096,None,,,,,,,,,,,,,,,,,,,,,,,,,,,,,,,,,,,,,,,,,,,,,,,,,,,,,,,,,,,,6,001,,,2020_Sep_07_1707,reactive_intentional_encoding_looped,3.2.4,59.849509839529254,
,,,,,,,,,,,,,,,,,,,,,,,,,,,,,,,,,,,,,,,,,,,,,,,,,,,,,,,,,,,,,,,,,,,,,,,,,,,,,,,,,,,,,,,,,,,,,,,,,,,,,,,,,,,,,,,,,,,,,,,,,,12.3769050980045,None,space,0.2261614819872193,12.3769050980045,None,,,,,,,,,,,,,,,,,,,,,,,,,,,,,,,,,,,,,,,,,,,,,,,,,,,,,,6,001,,,2020_Sep_07_1707,reactive_intentional_encoding_looped,3.2.4,59.849509839529254,
,,,,,,,,,,,,,,,,,,,,,,,,,,,,,,,,,,,,,,,,,,,,,,,,,,,,,,,,,,,,,,,,,,,,,,,,,,,,,,,,,,,,,,,,,,,,,,,,,,,,,,,,,,,,,,,,,,,,,,,,,,,,,,,,12.64355900499504,None,space,0.22831999100162648,12.64355900499504,None,,,,,,,,,,,,,,,,,,,,,,,,,,,,,,,,,,,,,,,,,,,,,,,,6,001,,,2020_Sep_07_1707,reactive_intentional_encoding_looped,3.2.4,59.849509839529254,
,,,,,,,,,,,,,,,,,,,,,,,,,,,,,,,,,,,,,,,,,,,,,,,,,,,,,,,,,,,,,,,,,,,,,,,,,,,,,,,,,,,,,,,,,,,,,,,,,,,,,,,,,,,,,,,,,,,,,,,,,,,,,,,,,,,,,,12.927222213998903,None,space,0.264599852001993,12.927222213998903,None,,,,,,,,,,,,,,,,,,,,,,,,,,,,,,,,,,,,,,,,,,6,001,,,2020_Sep_07_1707,reactive_intentional_encoding_looped,3.2.4,59.849509839529254,
"You're now almost finished the task! In the last part, you will do another memory test. You will be shown an image, like below, on each trial. Your job is to indicate whether you have seen this image before. If you have seen the image before, press 'f' to indicate that it is old. If you haven't seen this image before, press 'j' to indicate the image is new.",Press space to continue!,instruction_images/oldBook.png,None,None,None,None,None,None,None,J,F,None,old,new,,,,,,,,,,,,,,,,,,,,,,,,,,,,,,,,,,,,,,,,,,,,,,,,,,,,,,,,,,,,,,,,,,,,,,,,,,,,,,0,0,0,0,,,,,,,,,,,,,,,,,,,,,,,,,,,,,,,,,,,,,,,,,,,,,13.369353991991375,None,13.369353991991375,None,j,1.5893790239933878,13.369353991991375,None,13.369353991991375,None,13.369353991991375,None,13.369353991991375,None,13.369353991991375,None,13.369353991991375,None,,,,,,,,,,,,,,,,,,,,,,,,6,001,,,2020_Sep_07_1707,reactive_intentional_encoding_looped,3.2.4,59.849509839529254,
"Since you have seen the book before, you should select 'f' to indicate the book is old.",Press space to continue!,instruction_images/oldBook.png,None,None,None,None,None,None,None,J,F,None,old,new,,,,,,,,,,,,,,,,,,,,,,,,,,,,,,,,,,,,,,,,,,,,,,,,,,,,,,,,,,,,,,,,,,,,,,,,,,,,,,0,1,1,1,,,,,,,,,,,,,,,,,,,,,,,,,,,,,,,,,,,,,,,,,,,,,15.009623908990761,None,15.009623908990761,None,f,1.1214381100144237,15.009623908990761,None,15.009623908990761,None,15.009623908990761,None,15.009623908990761,None,15.009623908990761,None,15.009623908990761,None,,,,,,,,,,,,,,,,,,,,,,,,6,001,,,2020_Sep_07_1707,reactive_intentional_encoding_looped,3.2.4,59.849509839529254,
This test is timed. You have a limit of 2 seconds to respond. So try to respond as quickly as possible.,Press space to continue!,instruction_images/oldBook.png,None,None,None,None,None,None,None,J,F,None,old,new,,,,,,,,,,,,,,,,,,,,,,,,,,,,,,,,,,,,,,,,,,,,,,,,,,,,,,,,,,,,,,,,,,,,,,,,,,,,,,0,2,2,2,,,,,,,,,,,,,,,,,,,,,,,,,,,,,,,,,,,,,,,,,,,,,16.187115364999045,None,16.187115364999045,None,f,0.43955594999715686,16.187115364999045,None,16.187115364999045,None,16.187115364999045,None,16.187115364999045,None,16.187115364999045,None,16.187115364999045,None,,,,,,,,,,,,,,,,,,,,,,,,6,001,,,2020_Sep_07_1707,reactive_intentional_encoding_looped,3.2.4,59.849509839529254,
"First we will do a practice. When you’re ready to start the practice, press the space bar. ",Press space to continue!,instruction_images/oldBook.png,None,None,None,None,None,None,None,J,F,None,old,new,,,,,,,,,,,,,,,,,,,,,,,,,,,,,,,,,,,,,,,,,,,,,,,,,,,,,,,,,,,,,,,,,,,,,,,,,,,,,,0,3,3,3,,,,,,,,,,,,,,,,,,,,,,,,,,,,,,,,,,,,,,,,,,,,,16.676638392993482,None,16.676638392993482,None,j,0.2700894470035564,16.676638392993482,None,16.676638392993482,None,16.676638392993482,None,16.676638392993482,None,16.676638392993482,None,16.676638392993482,None,,,,,,,,,,,,,,,,,,,,,,,,6,001,,,2020_Sep_07_1707,reactive_intentional_encoding_looped,3.2.4,59.849509839529254,
None,Press space to continue!,instruction_images/oldBook.png,None,None,None,None,None,None,None,J,F,None,old,new,,,,,,,,,,,,,,,,,,,,,,,,,,,,,,,,,,,,,,,,,,,,,,,,,,,,,,,,,,,,,,,,,,,,,,,,,,,,,,0,4,4,4,,,,,,,,,,,,,,,,,,,,,,,,,,,,,,,,,,,,,,,,,,,,,16.999661823007045,None,16.999661823007045,None,j,0.19701953598996624,16.999661823007045,None,16.999661823007045,None,16.999661823007045,None,16.999661823007045,None,16.999661823007045,None,16.999661823007045,None,,,,,,,,,,,,,,,,,,,,,,,,6,001,,,2020_Sep_07_1707,reactive_intentional_encoding_looped,3.2.4,59.849509839529254,
,,,,,,,,,,,,,,,,,,,,,,,,,,,,,,,,,,,,,,,,,,,,,,,,,,,,,,,,,,,,,,,,,,,,,,,,,,,,,,,,,,,,,,,,,,,,,,,,,,,,,,,,,,,,,,,,,,,,,,,,,,,,,,,,,,,,,,,,,,,,,,,,,,,,,,,,,,,,,,17.230548893014202,None,space,2.514329882018501,17.230548893014202,None,,,,,,,,,,,,,,,,,,6,001,,,2020_Sep_07_1707,reactive_intentional_encoding_looped,3.2.4,59.849509839529254,
,,,,,,,,,,,,,,,images/quartz.png,A,object ,1,None,,,,,,,,,,,,,,,,,,,,,,,,,,,,,,,,,,,,,,,,,,,,,,,,,,,,,,,,,,,,,,,,,,,,,,,,,,,,,,,,,0,0,0,0,,,,,,,,,,,,,,,,,,,,,,,,,,,,,,,,,,,,,,,,,,,,,,,,,,,,,,,,,,,,,17.230548893014202,19.242838520003716,19.825594788999297,None,None,19.825594788999297,None,19.825594788999297,None,19.825594788999297,None,19.825594788999297,None,19.825594788999297,None,21.80270215999917,None,6,001,,,2020_Sep_07_1707,reactive_intentional_encoding_looped,3.2.4,59.849509839529254,
,,,,,,,,,,,,,,,images/feather.png,A,object ,2,None,,,,,,,,,,,,,,,,,,,,,,,,,,,,,,,,,,,,,,,,,,,,,,,,,,,,,,,,,,,,,,,,,,,,,,,,,,,,,,,,,0,1,1,1,,,,,,,,,,,,,,,,,,,,,,,,,,,,,,,,,,,,,,,,,,,,,,,,,,,,,,,,,,,,,,,22.300776866992237,None,None,22.300776866992237,None,22.300776866992237,None,22.300776866992237,None,22.300776866992237,None,22.300776866992237,None,24.28200409701094,None,6,001,,,2020_Sep_07_1707,reactive_intentional_encoding_looped,3.2.4,59.849509839529254,
,,,,,,,,,,,,,,,images/mannequin.jpg,A,object ,3,None,,,,,,,,,,,,,,,,,,,,,,,,,,,,,,,,,,,,,,,,,,,,,,,,,,,,,,,,,,,,,,,,,,,,,,,,,,,,,,,,,0,2,2,2,,,,,,,,,,,,,,,,,,,,,,,,,,,,,,,,,,,,,,,,,,,,,,,,,,,,,,,,,,,,,,,24.792441324010724,None,None,24.792441324010724,None,24.792441324010724,None,24.792441324010724,None,24.792441324010724,None,24.792441324010724,None,26.78022545899148,None,6,001,,,2020_Sep_07_1707,reactive_intentional_encoding_looped,3.2.4,59.849509839529254,
,,,,,,,,,,,,,,,images/westminster_bbbey_b.jpg,new,scene,4,None,,,,,,,,,,,,,,,,,,,,,,,,,,,,,,,,,,,,,,,,,,,,,,,,,,,,,,,,,,,,,,,,,,,,,,,,,,,,,,,,,0,3,3,3,,,,,,,,,,,,,,,,,,,,,,,,,,,,,,,,,,,,,,,,,,,,,,,,,,,,,,,,,,,,,,,27.291795575001743,None,None,27.291795575001743,None,27.291795575001743,None,27.291795575001743,None,27.291795575001743,None,27.291795575001743,None,29.291488899005344,None,6,001,,,2020_Sep_07_1707,reactive_intentional_encoding_looped,3.2.4,59.849509839529254,
,,,,,,,,,,,,,,,images/outhouse.png,C,object ,5,direct,,,,,,,,,,,,,,,,,,,,,,,,,,,,,,,,,,,,,,,,,,,,,,,,,,,,,,,,,,,,,,,,,,,,,,,,,,,,,,,,,0,4,4,4,,,,,,,,,,,,,,,,,,,,,,,,,,,,,,,,,,,,,,,,,,,,,,,,,,,,,,,,,,,,,,,29.796983414009446,None,None,29.796983414009446,None,29.796983414009446,None,29.796983414009446,None,29.796983414009446,None,29.796983414009446,None,31.78097740901285,None,6,001,,,2020_Sep_07_1707,reactive_intentional_encoding_looped,3.2.4,59.849509839529254,
,,,,,,,,,,,,,,,images/neil_patrick_harris.jpg,B,face,6,direct,,,,,,,,,,,,,,,,,,,,,,,,,,,,,,,,,,,,,,,,,,,,,,,,,,,,,,,,,,,,,,,,,,,,,,,,,,,,,,,,,0,5,5,5,,,,,,,,,,,,,,,,,,,,,,,,,,,,,,,,,,,,,,,,,,,,,,,,,,,,,,,,,,,,,,,32.291886132006766,None,None,32.291886132006766,None,32.291886132006766,None,32.291886132006766,None,32.291886132006766,None,32.291886132006766,None,34.29076406499371,None,6,001,,,2020_Sep_07_1707,reactive_intentional_encoding_looped,3.2.4,59.849509839529254,
,,,,,,,,,,,,,,,images/martin_scorsese_a.jpg,new,face,7,None,,,,,,,,,,,,,,,,,,,,,,,,,,,,,,,,,,,,,,,,,,,,,,,,,,,,,,,,,,,,,,,,,,,,,,,,,,,,,,,,,0,6,6,6,,,,,,,,,,,,,,,,,,,,,,,,,,,,,,,,,,,,,,,,,,,,,,,,,,,,,,,,,,,,,,,34.794366937014274,None,None,34.794366937014274,None,34.794366937014274,None,34.794366937014274,None,34.794366937014274,None,34.794366937014274,None,36.789852404996054,None,6,001,,,2020_Sep_07_1707,reactive_intentional_encoding_looped,3.2.4,59.849509839529254,
,,,,,,,,,,,,,,,images/microwave.png,C,object ,8,direct,,,,,,,,,,,,,,,,,,,,,,,,,,,,,,,,,,,,,,,,,,,,,,,,,,,,,,,,,,,,,,,,,,,,,,,,,,,,,,,,,0,7,7,7,,,,,,,,,,,,,,,,,,,,,,,,,,,,,,,,,,,,,,,,,,,,,,,,,,,,,,,,,,,,,,,37.3080964180117,None,None,37.3080964180117,None,37.3080964180117,None,37.3080964180117,None,37.3080964180117,None,37.3080964180117,None,39.29109453901765,None,6,001,,,2020_Sep_07_1707,reactive_intentional_encoding_looped,3.2.4,59.849509839529254,
,,,,,,,,,,,,,,,images/empire_state_building_a.jpg,B,scene,9,direct,,,,,,,,,,,,,,,,,,,,,,,,,,,,,,,,,,,,,,,,,,,,,,,,,,,,,,,,,,,,,,,,,,,,,,,,,,,,,,,,,0,8,8,8,,,,,,,,,,,,,,,,,,,,,,,,,,,,,,,,,,,,,,,,,,,,,,,,,,,,,,,,,,,,,,,39.79817970801378,None,None,39.79817970801378,None,39.79817970801378,None,39.79817970801378,None,39.79817970801378,None,39.79817970801378,None,41.781429861992365,None,6,001,,,2020_Sep_07_1707,reactive_intentional_encoding_looped,3.2.4,59.849509839529254,
,,,,,,,,,,,,,,,images/pylonTraffic.jpg,new,object ,10,None,,,,,,,,,,,,,,,,,,,,,,,,,,,,,,,,,,,,,,,,,,,,,,,,,,,,,,,,,,,,,,,,,,,,,,,,,,,,,,,,,0,9,9,9,,,,,,,,,,,,,,,,,,,,,,,,,,,,,,,,,,,,,,,,,,,,,,,,,,,,,,,,,,,,,,,42.29117776500061,None,None,42.29117776500061,None,42.29117776500061,None,42.29117776500061,None,42.29117776500061,None,42.29117776500061,None,44.28943164800876,None,6,001,,,2020_Sep_07_1707,reactive_intentional_encoding_looped,3.2.4,59.849509839529254,
,,,,,,,,,,,,,,,images/qtip.png,new,object ,11,None,,,,,,,,,,,,,,,,,,,,,,,,,,,,,,,,,,,,,,,,,,,,,,,,,,,,,,,,,,,,,,,,,,,,,,,,,,,,,,,,,0,10,10,10,,,,,,,,,,,,,,,,,,,,,,,,,,,,,,,,,,,,,,,,,,,,,,,,,,,,,,,,,,,,,,,44.797070788015844,None,None,44.797070788015844,None,44.797070788015844,None,44.797070788015844,None,44.797070788015844,None,44.797070788015844,None,46.78967328701401,None,6,001,,,2020_Sep_07_1707,reactive_intentional_encoding_looped,3.2.4,59.849509839529254,
,,,,,,,,,,,,,,,images/washington_monument_a.jpg,new,scene,12,None,,,,,,,,,,,,,,,,,,,,,,,,,,,,,,,,,,,,,,,,,,,,,,,,,,,,,,,,,,,,,,,,,,,,,,,,,,,,,,,,,0,11,11,11,,,,,,,,,,,,,,,,,,,,,,,,,,,,,,,,,,,,,,,,,,,,,,,,,,,,,,,,,,,,,,,47.30139910301659,None,None,47.30139910301659,None,47.30139910301659,None,47.30139910301659,None,47.30139910301659,None,47.30139910301659,None,49.28923617201508,None,6,001,,,2020_Sep_07_1707,reactive_intentional_encoding_looped,3.2.4,59.849509839529254,
,,,,,,,,,,,,,,,images/puzzlepiece.png,A,object ,13,None,,,,,,,,,,,,,,,,,,,,,,,,,,,,,,,,,,,,,,,,,,,,,,,,,,,,,,,,,,,,,,,,,,,,,,,,,,,,,,,,,0,12,12,12,,,,,,,,,,,,,,,,,,,,,,,,,,,,,,,,,,,,,,,,,,,,,,,,,,,,,,,,,,,,,,,49.789987472991925,None,None,49.789987472991925,None,49.789987472991925,None,49.789987472991925,None,49.789987472991925,None,49.789987472991925,None,51.789635385997826,None,6,001,,,2020_Sep_07_1707,reactive_intentional_encoding_looped,3.2.4,59.849509839529254,
,,,,,,,,,,,,,,,images/newspaper_stack.png,C,object ,14,direct,,,,,,,,,,,,,,,,,,,,,,,,,,,,,,,,,,,,,,,,,,,,,,,,,,,,,,,,,,,,,,,,,,,,,,,,,,,,,,,,,0,13,13,13,,,,,,,,,,,,,,,,,,,,,,,,,,,,,,,,,,,,,,,,,,,,,,,,,,,,,,,,,,,,,,,52.298632335994625,None,None,52.298632335994625,None,52.298632335994625,None,52.298632335994625,None,52.298632335994625,None,52.298632335994625,None,54.28055960100028,None,6,001,,,2020_Sep_07_1707,reactive_intentional_encoding_looped,3.2.4,59.849509839529254,
,,,,,,,,,,,,,,,images/james_franco_c.jpg,B,face,15,direct,,,,,,,,,,,,,,,,,,,,,,,,,,,,,,,,,,,,,,,,,,,,,,,,,,,,,,,,,,,,,,,,,,,,,,,,,,,,,,,,,0,14,14,14,,,,,,,,,,,,,,,,,,,,,,,,,,,,,,,,,,,,,,,,,,,,,,,,,,,,,,,,,,,,,,,54.79076407701359,None,None,54.79076407701359,None,54.79076407701359,None,54.79076407701359,None,54.79076407701359,None,54.79076407701359,None,56.78004922400578,None,6,001,,,2020_Sep_07_1707,reactive_intentional_encoding_looped,3.2.4,59.849509839529254,
,,,,,,,,,,,,,,,images/donutFloaty.jpg,A,object ,16,None,,,,,,,,,,,,,,,,,,,,,,,,,,,,,,,,,,,,,,,,,,,,,,,,,,,,,,,,,,,,,,,,,,,,,,,,,,,,,,,,,0,15,15,15,,,,,,,,,,,,,,,,,,,,,,,,,,,,,,,,,,,,,,,,,,,,,,,,,,,,,,,,,,,,,,,57.29779148599482,None,None,57.29779148599482,None,57.29779148599482,None,57.29779148599482,None,57.29779148599482,None,57.29779148599482,None,59.280532775999745,None,6,001,,,2020_Sep_07_1707,reactive_intentional_encoding_looped,3.2.4,59.849509839529254,
,,,,,,,,,,,,,,,images/lotus_temple_a.jpg,new,scene,17,None,,,,,,,,,,,,,,,,,,,,,,,,,,,,,,,,,,,,,,,,,,,,,,,,,,,,,,,,,,,,,,,,,,,,,,,,,,,,,,,,,0,16,16,16,,,,,,,,,,,,,,,,,,,,,,,,,,,,,,,,,,,,,,,,,,,,,,,,,,,,,,,,,,,,,,,59.7908156060148,None,None,59.7908156060148,None,59.7908156060148,None,59.7908156060148,None,59.7908156060148,None,59.7908156060148,None,61.78066616400611,None,6,001,,,2020_Sep_07_1707,reactive_intentional_encoding_looped,3.2.4,59.849509839529254,
,,,,,,,,,,,,,,,images/antlerheadband.png,new,object ,18,None,,,,,,,,,,,,,,,,,,,,,,,,,,,,,,,,,,,,,,,,,,,,,,,,,,,,,,,,,,,,,,,,,,,,,,,,,,,,,,,,,0,17,17,17,,,,,,,,,,,,,,,,,,,,,,,,,,,,,,,,,,,,,,,,,,,,,,,,,,,,,,,,,,,,,,,62.28784021700267,None,None,62.28784021700267,None,62.28784021700267,None,62.28784021700267,None,62.28784021700267,None,62.28784021700267,None,64.28080363001209,None,6,001,,,2020_Sep_07_1707,reactive_intentional_encoding_looped,3.2.4,59.849509839529254,
,,,,,,,,,,,,,,,images/champagne.jpg,A,object ,19,None,,,,,,,,,,,,,,,,,,,,,,,,,,,,,,,,,,,,,,,,,,,,,,,,,,,,,,,,,,,,,,,,,,,,,,,,,,,,,,,,,0,18,18,18,,,,,,,,,,,,,,,,,,,,,,,,,,,,,,,,,,,,,,,,,,,,,,,,,,,,,,,,,,,,,,,64.7911774769891,None,None,64.7911774769891,None,64.7911774769891,None,64.7911774769891,None,64.7911774769891,None,64.7911774769891,None,66.78107948001707,None,6,001,,,2020_Sep_07_1707,reactive_intentional_encoding_looped,3.2.4,59.849509839529254,
,,,,,,,,,,,,,,,images/bag_gift.png,A,object ,20,None,,,,,,,,,,,,,,,,,,,,,,,,,,,,,,,,,,,,,,,,,,,,,,,,,,,,,,,,,,,,,,,,,,,,,,,,,,,,,,,,,0,19,19,19,,,,,,,,,,,,,,,,,,,,,,,,,,,,,,,,,,,,,,,,,,,,,,,,,,,,,,,,,,,,,,,67.29147876799107,None,None,67.29147876799107,None,67.29147876799107,None,67.29147876799107,None,67.29147876799107,None,67.29147876799107,None,69.28030626900727,None,6,001,,,2020_Sep_07_1707,reactive_intentional_encoding_looped,3.2.4,59.849509839529254,
,,,,,,,,,,,,,,,images/trafalgar_square_a.jpg,new,scene,21,None,,,,,,,,,,,,,,,,,,,,,,,,,,,,,,,,,,,,,,,,,,,,,,,,,,,,,,,,,,,,,,,,,,,,,,,,,,,,,,,,,0,20,20,20,,,,,,,,,,,,,,,,,,,,,,,,,,,,,,,,,,,,,,,,,,,,,,,,,,,,,,,,,,,,,,,69.78784832800739,None,None,69.78784832800739,None,69.78784832800739,None,69.78784832800739,None,69.78784832800739,None,69.78784832800739,None,71.7810095140012,None,6,001,,,2020_Sep_07_1707,reactive_intentional_encoding_looped,3.2.4,59.849509839529254,
,,,,,,,,,,,,,,,images/kirsten_dunst_a.jpg,new,face,22,None,,,,,,,,,,,,,,,,,,,,,,,,,,,,,,,,,,,,,,,,,,,,,,,,,,,,,,,,,,,,,,,,,,,,,,,,,,,,,,,,,0,21,21,21,,,,,,,,,,,,,,,,,,,,,,,,,,,,,,,,,,,,,,,,,,,,,,,,,,,,,,,,,,,,,,,72.287230706017,None,None,72.287230706017,None,72.287230706017,None,72.287230706017,None,72.287230706017,None,72.287230706017,None,74.2809662570071,None,6,001,,,2020_Sep_07_1707,reactive_intentional_encoding_looped,3.2.4,59.849509839529254,
,,,,,,,,,,,,,,,images/pajamas.png,C,object ,23,direct,,,,,,,,,,,,,,,,,,,,,,,,,,,,,,,,,,,,,,,,,,,,,,,,,,,,,,,,,,,,,,,,,,,,,,,,,,,,,,,,,0,22,22,22,,,,,,,,,,,,,,,,,,,,,,,,,,,,,,,,,,,,,,,,,,,,,,,,,,,,,,,,,,,,,,,74.79753148200689,None,None,74.79753148200689,None,74.79753148200689,None,74.79753148200689,None,74.79753148200689,None,74.79753148200689,None,76.78017793298932,None,6,001,,,2020_Sep_07_1707,reactive_intentional_encoding_looped,3.2.4,59.849509839529254,
,,,,,,,,,,,,,,,images/machu_picchu_c.jpg,B,scene,24,direct,,,,,,,,,,,,,,,,,,,,,,,,,,,,,,,,,,,,,,,,,,,,,,,,,,,,,,,,,,,,,,,,,,,,,,,,,,,,,,,,,0,23,23,23,,,,,,,,,,,,,,,,,,,,,,,,,,,,,,,,,,,,,,,,,,,,,,,,,,,,,,,,,,,,,,,77.2921473759925,None,None,77.2921473759925,None,77.2921473759925,None,77.2921473759925,None,77.2921473759925,None,77.2921473759925,None,79.28061934700236,None,6,001,,,2020_Sep_07_1707,reactive_intentional_encoding_looped,3.2.4,59.849509839529254,
,,,,,,,,,,,,,,,images/mop.png,C,object ,25,indirect,,,,,,,,,,,,,,,,,,,,,,,,,,,,,,,,,,,,,,,,,,,,,,,,,,,,,,,,,,,,,,,,,,,,,,,,,,,,,,,,,0,24,24,24,,,,,,,,,,,,,,,,,,,,,,,,,,,,,,,,,,,,,,,,,,,,,,,,,,,,,,,,,,,,,,,79.79725707200123,None,None,79.79725707200123,None,79.79725707200123,None,79.79725707200123,None,79.79725707200123,None,79.79725707200123,None,81.78042863600422,None,6,001,,,2020_Sep_07_1707,reactive_intentional_encoding_looped,3.2.4,59.849509839529254,
,,,,,,,,,,,,,,,images/golden_gate_bridge_b.jpg,B,scene,26,indirect,,,,,,,,,,,,,,,,,,,,,,,,,,,,,,,,,,,,,,,,,,,,,,,,,,,,,,,,,,,,,,,,,,,,,,,,,,,,,,,,,0,25,25,25,,,,,,,,,,,,,,,,,,,,,,,,,,,,,,,,,,,,,,,,,,,,,,,,,,,,,,,,,,,,,,,82.2878048279963,None,None,82.2878048279963,None,82.2878048279963,None,82.2878048279963,None,82.2878048279963,None,82.2878048279963,None,84.28041423199465,None,6,001,,,2020_Sep_07_1707,reactive_intentional_encoding_looped,3.2.4,59.849509839529254,
,,,,,,,,,,,,,,,images/ozzy_osbourne_a.jpg,new,face,27,None,,,,,,,,,,,,,,,,,,,,,,,,,,,,,,,,,,,,,,,,,,,,,,,,,,,,,,,,,,,,,,,,,,,,,,,,,,,,,,,,,0,26,26,26,,,,,,,,,,,,,,,,,,,,,,,,,,,,,,,,,,,,,,,,,,,,,,,,,,,,,,,,,,,,,,,84.78746932101785,None,None,84.78746932101785,None,84.78746932101785,None,84.78746932101785,None,84.78746932101785,None,84.78746932101785,None,86.7807507099933,None,6,001,,,2020_Sep_07_1707,reactive_intentional_encoding_looped,3.2.4,59.849509839529254,
,,,,,,,,,,,,,,,images/rollerblade.png,new,object ,28,None,,,,,,,,,,,,,,,,,,,,,,,,,,,,,,,,,,,,,,,,,,,,,,,,,,,,,,,,,,,,,,,,,,,,,,,,,,,,,,,,,0,27,27,27,,,,,,,,,,,,,,,,,,,,,,,,,,,,,,,,,,,,,,,,,,,,,,,,,,,,,,,,,,,,,,,87.2973861170176,None,None,87.2973861170176,None,87.2973861170176,None,87.2973861170176,None,87.2973861170176,None,87.2973861170176,None,89.28048606001539,None,6,001,,,2020_Sep_07_1707,reactive_intentional_encoding_looped,3.2.4,59.849509839529254,
,,,,,,,,,,,,,,,images/motorcycle.png,C,object ,29,indirect,,,,,,,,,,,,,,,,,,,,,,,,,,,,,,,,,,,,,,,,,,,,,,,,,,,,,,,,,,,,,,,,,,,,,,,,,,,,,,,,,0,28,28,28,,,,,,,,,,,,,,,,,,,,,,,,,,,,,,,,,,,,,,,,,,,,,,,,,,,,,,,,,,,,,,,89.79733287199633,None,None,89.79733287199633,None,89.79733287199633,None,89.79733287199633,None,89.79733287199633,None,89.79733287199633,None,91.7809055839898,None,6,001,,,2020_Sep_07_1707,reactive_intentional_encoding_looped,3.2.4,59.849509839529254,
,,,,,,,,,,,,,,,images/serengeti_c.jpg,B,scene,30,indirect,,,,,,,,,,,,,,,,,,,,,,,,,,,,,,,,,,,,,,,,,,,,,,,,,,,,,,,,,,,,,,,,,,,,,,,,,,,,,,,,,0,29,29,29,,,,,,,,,,,,,,,,,,,,,,,,,,,,,,,,,,,,,,,,,,,,,,,,,,,,,,,,,,,,,,,92.29649947400321,None,None,92.29649947400321,None,92.29649947400321,None,92.29649947400321,None,92.29649947400321,None,92.29649947400321,None,94.28059729500092,None,6,001,,,2020_Sep_07_1707,reactive_intentional_encoding_looped,3.2.4,59.849509839529254,
,,,,,,,,,,,,,,,images/chest_toys.png,A,object ,31,None,,,,,,,,,,,,,,,,,,,,,,,,,,,,,,,,,,,,,,,,,,,,,,,,,,,,,,,,,,,,,,,,,,,,,,,,,,,,,,,,,0,30,30,30,,,,,,,,,,,,,,,,,,,,,,,,,,,,,,,,,,,,,,,,,,,,,,,,,,,,,,,,,,,,,,,94.79742251499556,None,None,94.79742251499556,None,94.79742251499556,None,94.79742251499556,None,94.79742251499556,None,94.79742251499556,None,96.77983215401764,None,6,001,,,2020_Sep_07_1707,reactive_intentional_encoding_looped,3.2.4,59.849509839529254,
,,,,,,,,,,,,,,,images/razor.png,new,object ,32,None,,,,,,,,,,,,,,,,,,,,,,,,,,,,,,,,,,,,,,,,,,,,,,,,,,,,,,,,,,,,,,,,,,,,,,,,,,,,,,,,,0,31,31,31,,,,,,,,,,,,,,,,,,,,,,,,,,,,,,,,,,,,,,,,,,,,,,,,,,,,,,,,,,,,,,,97.2893844509963,None,None,97.2893844509963,None,97.2893844509963,None,97.2893844509963,None,97.2893844509963,None,97.2893844509963,None,99.28022327899816,None,6,001,,,2020_Sep_07_1707,reactive_intentional_encoding_looped,3.2.4,59.849509839529254,
,,,,,,,,,,,,,,,images/st_basils_a.jpg,new,scene,33,None,,,,,,,,,,,,,,,,,,,,,,,,,,,,,,,,,,,,,,,,,,,,,,,,,,,,,,,,,,,,,,,,,,,,,,,,,,,,,,,,,0,32,32,32,,,,,,,,,,,,,,,,,,,,,,,,,,,,,,,,,,,,,,,,,,,,,,,,,,,,,,,,,,,,,,,99.79709454401745,None,None,99.79709454401745,None,99.79709454401745,None,99.79709454401745,None,99.79709454401745,None,99.79709454401745,None,101.7802562029974,None,6,001,,,2020_Sep_07_1707,reactive_intentional_encoding_looped,3.2.4,59.849509839529254,
,,,,,,,,,,,,,,,images/balloon.jpg,A,object ,34,None,,,,,,,,,,,,,,,,,,,,,,,,,,,,,,,,,,,,,,,,,,,,,,,,,,,,,,,,,,,,,,,,,,,,,,,,,,,,,,,,,0,33,33,33,,,,,,,,,,,,,,,,,,,,,,,,,,,,,,,,,,,,,,,,,,,,,,,,,,,,,,,,,,,,,,,102.28696383099305,None,None,102.28696383099305,None,102.28696383099305,None,102.28696383099305,None,102.28696383099305,None,102.28696383099305,None,104.2804452739947,None,6,001,,,2020_Sep_07_1707,reactive_intentional_encoding_looped,3.2.4,59.849509839529254,
,,,,,,,,,,,,,,,images/pentagon_a.jpg,new,scene,35,None,,,,,,,,,,,,,,,,,,,,,,,,,,,,,,,,,,,,,,,,,,,,,,,,,,,,,,,,,,,,,,,,,,,,,,,,,,,,,,,,,0,34,34,34,,,,,,,,,,,,,,,,,,,,,,,,,,,,,,,,,,,,,,,,,,,,,,,,,,,,,,,,,,,,,,,104.79658090599696,None,None,104.79658090599696,None,104.79658090599696,None,104.79658090599696,None,104.79658090599696,None,104.79658090599696,None,106.78033339200192,None,6,001,,,2020_Sep_07_1707,reactive_intentional_encoding_looped,3.2.4,59.849509839529254,
,,,,,,,,,,,,,,,images/puppettheatre.png,new,object ,36,None,,,,,,,,,,,,,,,,,,,,,,,,,,,,,,,,,,,,,,,,,,,,,,,,,,,,,,,,,,,,,,,,,,,,,,,,,,,,,,,,,0,35,35,35,,,,,,,,,,,,,,,,,,,,,,,,,,,,,,,,,,,,,,,,,,,,,,,,,,,,,,,,,,,,,,,107.29631922399858,None,None,107.29631922399858,None,107.29631922399858,None,107.29631922399858,None,107.29631922399858,None,107.29631922399858,None,109.28004740001052,None,6,001,,,2020_Sep_07_1707,reactive_intentional_encoding_looped,3.2.4,59.849509839529254,
,,,,,,,,,,,,,,,images/glasses_sun.png,A,object ,37,None,,,,,,,,,,,,,,,,,,,,,,,,,,,,,,,,,,,,,,,,,,,,,,,,,,,,,,,,,,,,,,,,,,,,,,,,,,,,,,,,,0,36,36,36,,,,,,,,,,,,,,,,,,,,,,,,,,,,,,,,,,,,,,,,,,,,,,,,,,,,,,,,,,,,,,,109.78638891500304,None,None,109.78638891500304,None,109.78638891500304,None,109.78638891500304,None,109.78638891500304,None,109.78638891500304,None,111.7800326209981,None,6,001,,,2020_Sep_07_1707,reactive_intentional_encoding_looped,3.2.4,59.849509839529254,
,,,,,,,,,,,,,,,images/meg_ryan_b.jpg,new,face,38,None,,,,,,,,,,,,,,,,,,,,,,,,,,,,,,,,,,,,,,,,,,,,,,,,,,,,,,,,,,,,,,,,,,,,,,,,,,,,,,,,,0,37,37,37,,,,,,,,,,,,,,,,,,,,,,,,,,,,,,,,,,,,,,,,,,,,,,,,,,,,,,,,,,,,,,,112.29709987100796,None,None,112.29709987100796,None,112.29709987100796,None,112.29709987100796,None,112.29709987100796,None,112.29709987100796,None,114.27998161601136,None,6,001,,,2020_Sep_07_1707,reactive_intentional_encoding_looped,3.2.4,59.849509839529254,
,,,,,,,,,,,,,,,images/origamiPaper.png,C,object ,39,direct,,,,,,,,,,,,,,,,,,,,,,,,,,,,,,,,,,,,,,,,,,,,,,,,,,,,,,,,,,,,,,,,,,,,,,,,,,,,,,,,,0,38,38,38,,,,,,,,,,,,,,,,,,,,,,,,,,,,,,,,,,,,,,,,,,,,,,,,,,,,,,,,,,,,,,,114.7963177950005,None,None,114.7963177950005,None,114.7963177950005,None,114.7963177950005,None,114.7963177950005,None,114.7963177950005,None,116.779842879012,None,6,001,,,2020_Sep_07_1707,reactive_intentional_encoding_looped,3.2.4,59.849509839529254,
,,,,,,,,,,,,,,,images/stonehenge_b.jpg,B,scene,40,direct,,,,,,,,,,,,,,,,,,,,,,,,,,,,,,,,,,,,,,,,,,,,,,,,,,,,,,,,,,,,,,,,,,,,,,,,,,,,,,,,,0,39,39,39,,,,,,,,,,,,,,,,,,,,,,,,,,,,,,,,,,,,,,,,,,,,,,,,,,,,,,,,,,,,,,,117.29626657799236,None,None,117.29626657799236,None,117.29626657799236,None,117.29626657799236,None,117.29626657799236,None,117.29626657799236,None,119.28040353101096,None,6,001,,,2020_Sep_07_1707,reactive_intentional_encoding_looped,3.2.4,59.849509839529254,
,,,,,,,,,,,,,,,images/diving_board.jpg,A,object ,41,None,,,,,,,,,,,,,,,,,,,,,,,,,,,,,,,,,,,,,,,,,,,,,,,,,,,,,,,,,,,,,,,,,,,,,,,,,,,,,,,,,0,40,40,40,,,,,,,,,,,,,,,,,,,,,,,,,,,,,,,,,,,,,,,,,,,,,,,,,,,,,,,,,,,,,,,119.79623908901704,None,None,119.79623908901704,None,119.79623908901704,None,119.79623908901704,None,119.79623908901704,None,119.79623908901704,None,121.78068331099348,None,6,001,,,2020_Sep_07_1707,reactive_intentional_encoding_looped,3.2.4,59.849509839529254,
,,,,,,,,,,,,,,,images/oven.png,C,object ,42,indirect,,,,,,,,,,,,,,,,,,,,,,,,,,,,,,,,,,,,,,,,,,,,,,,,,,,,,,,,,,,,,,,,,,,,,,,,,,,,,,,,,0,41,41,41,,,,,,,,,,,,,,,,,,,,,,,,,,,,,,,,,,,,,,,,,,,,,,,,,,,,,,,,,,,,,,,122.29615317500429,None,None,122.29615317500429,None,122.29615317500429,None,122.29615317500429,None,122.29615317500429,None,122.29615317500429,None,124.280285225017,None,6,001,,,2020_Sep_07_1707,reactive_intentional_encoding_looped,3.2.4,59.849509839529254,
,,,,,,,,,,,,,,,images/emma_stone.jpg,B,face,43,indirect,,,,,,,,,,,,,,,,,,,,,,,,,,,,,,,,,,,,,,,,,,,,,,,,,,,,,,,,,,,,,,,,,,,,,,,,,,,,,,,,,0,42,42,42,,,,,,,,,,,,,,,,,,,,,,,,,,,,,,,,,,,,,,,,,,,,,,,,,,,,,,,,,,,,,,,124.79615195799852,None,None,124.79615195799852,None,124.79615195799852,None,124.79615195799852,None,124.79615195799852,None,124.79615195799852,None,126.78010221000295,None,6,001,,,2020_Sep_07_1707,reactive_intentional_encoding_looped,3.2.4,59.849509839529254,
,,,,,,,,,,,,,,,images/mel_gibson_c.jpg,new,face,44,None,,,,,,,,,,,,,,,,,,,,,,,,,,,,,,,,,,,,,,,,,,,,,,,,,,,,,,,,,,,,,,,,,,,,,,,,,,,,,,,,,0,43,43,43,,,,,,,,,,,,,,,,,,,,,,,,,,,,,,,,,,,,,,,,,,,,,,,,,,,,,,,,,,,,,,,127.28527044400107,None,None,127.28527044400107,None,127.28527044400107,None,127.28527044400107,None,127.28527044400107,None,127.28527044400107,None,129.2798679980042,None,6,001,,,2020_Sep_07_1707,reactive_intentional_encoding_looped,3.2.4,59.849509839529254,
,,,,,,,,,,,,,,,images/white_house_a.jpg,new,scene,45,None,,,,,,,,,,,,,,,,,,,,,,,,,,,,,,,,,,,,,,,,,,,,,,,,,,,,,,,,,,,,,,,,,,,,,,,,,,,,,,,,,0,44,44,44,,,,,,,,,,,,,,,,,,,,,,,,,,,,,,,,,,,,,,,,,,,,,,,,,,,,,,,,,,,,,,,129.7958467779972,None,None,129.7958467779972,None,129.7958467779972,None,129.7958467779972,None,129.7958467779972,None,129.7958467779972,None,131.7799655419949,None,6,001,,,2020_Sep_07_1707,reactive_intentional_encoding_looped,3.2.4,59.849509839529254,
,,,,,,,,,,,,,,,images/castle_sand.png,A,object ,46,None,,,,,,,,,,,,,,,,,,,,,,,,,,,,,,,,,,,,,,,,,,,,,,,,,,,,,,,,,,,,,,,,,,,,,,,,,,,,,,,,,0,45,45,45,,,,,,,,,,,,,,,,,,,,,,,,,,,,,,,,,,,,,,,,,,,,,,,,,,,,,,,,,,,,,,,132.29659266601084,None,None,132.29659266601084,None,132.29659266601084,None,132.29659266601084,None,132.29659266601084,None,132.29659266601084,None,134.27960629199515,None,6,001,,,2020_Sep_07_1707,reactive_intentional_encoding_looped,3.2.4,59.849509839529254,
,,,,,,,,,,,,,,,images/pants.png,C,object ,47,direct,,,,,,,,,,,,,,,,,,,,,,,,,,,,,,,,,,,,,,,,,,,,,,,,,,,,,,,,,,,,,,,,,,,,,,,,,,,,,,,,,0,46,46,46,,,,,,,,,,,,,,,,,,,,,,,,,,,,,,,,,,,,,,,,,,,,,,,,,,,,,,,,,,,,,,,134.79684488699422,None,None,134.79684488699422,None,134.79684488699422,None,134.79684488699422,None,134.79684488699422,None,134.79684488699422,None,136.78012850001687,None,6,001,,,2020_Sep_07_1707,reactive_intentional_encoding_looped,3.2.4,59.849509839529254,
,,,,,,,,,,,,,,,images/julia_roberts_c.jpg,B,face,48,direct,,,,,,,,,,,,,,,,,,,,,,,,,,,,,,,,,,,,,,,,,,,,,,,,,,,,,,,,,,,,,,,,,,,,,,,,,,,,,,,,,0,47,47,47,,,,,,,,,,,,,,,,,,,,,,,,,,,,,,,,,,,,,,,,,,,,,,,,,,,,,,,,,,,,,,,137.2966226169956,None,None,137.2966226169956,None,137.2966226169956,None,137.2966226169956,None,137.2966226169956,None,137.2966226169956,None,139.27938357999665,None,6,001,,,2020_Sep_07_1707,reactive_intentional_encoding_looped,3.2.4,59.849509839529254,
,,,,,,,,,,,,,,,images/flipflopsBlue.png,A,object ,49,None,,,,,,,,,,,,,,,,,,,,,,,,,,,,,,,,,,,,,,,,,,,,,,,,,,,,,,,,,,,,,,,,,,,,,,,,,,,,,,,,,0,48,48,48,,,,,,,,,,,,,,,,,,,,,,,,,,,,,,,,,,,,,,,,,,,,,,,,,,,,,,,,,,,,,,,139.7961190380156,None,None,139.7961190380156,None,139.7961190380156,None,139.7961190380156,None,139.7961190380156,None,139.7961190380156,None,141.77861297799973,None,6,001,,,2020_Sep_07_1707,reactive_intentional_encoding_looped,3.2.4,59.849509839529254,
,,,,,,,,,,,,,,,images/peppermill.png,C,object ,50,indirect,,,,,,,,,,,,,,,,,,,,,,,,,,,,,,,,,,,,,,,,,,,,,,,,,,,,,,,,,,,,,,,,,,,,,,,,,,,,,,,,,0,49,49,49,,,,,,,,,,,,,,,,,,,,,,,,,,,,,,,,,,,,,,,,,,,,,,,,,,,,,,,,,,,,,,,142.29607037399546,None,None,142.29607037399546,None,142.29607037399546,None,142.29607037399546,None,142.29607037399546,None,142.29607037399546,None,144.27901212399593,None,6,001,,,2020_Sep_07_1707,reactive_intentional_encoding_looped,3.2.4,59.849509839529254,
,,,,,,,,,,,,,,,images/neuschwanstein_castle_c.jpg,B,scene,51,indirect,,,,,,,,,,,,,,,,,,,,,,,,,,,,,,,,,,,,,,,,,,,,,,,,,,,,,,,,,,,,,,,,,,,,,,,,,,,,,,,,,0,50,50,50,,,,,,,,,,,,,,,,,,,,,,,,,,,,,,,,,,,,,,,,,,,,,,,,,,,,,,,,,,,,,,,144.79519165100646,None,None,144.79519165100646,None,144.79519165100646,None,144.79519165100646,None,144.79519165100646,None,144.79519165100646,None,146.77854225999909,None,6,001,,,2020_Sep_07_1707,reactive_intentional_encoding_looped,3.2.4,59.849509839529254,
,,,,,,,,,,,,,,,images/pen.png,C,object ,52,indirect,,,,,,,,,,,,,,,,,,,,,,,,,,,,,,,,,,,,,,,,,,,,,,,,,,,,,,,,,,,,,,,,,,,,,,,,,,,,,,,,,0,51,51,51,,,,,,,,,,,,,,,,,,,,,,,,,,,,,,,,,,,,,,,,,,,,,,,,,,,,,,,,,,,,,,,147.29468965900014,None,None,147.29468965900014,None,147.29468965900014,None,147.29468965900014,None,147.29468965900014,None,147.29468965900014,None,149.27865901999758,None,6,001,,,2020_Sep_07_1707,reactive_intentional_encoding_looped,3.2.4,59.849509839529254,
,,,,,,,,,,,,,,,images/waikiki_c.jpg,B,scene,53,indirect,,,,,,,,,,,,,,,,,,,,,,,,,,,,,,,,,,,,,,,,,,,,,,,,,,,,,,,,,,,,,,,,,,,,,,,,,,,,,,,,,0,52,52,52,,,,,,,,,,,,,,,,,,,,,,,,,,,,,,,,,,,,,,,,,,,,,,,,,,,,,,,,,,,,,,,149.8115048740001,None,None,149.8115048740001,None,149.8115048740001,None,149.8115048740001,None,149.8115048740001,None,149.8115048740001,None,151.77864819500246,None,6,001,,,2020_Sep_07_1707,reactive_intentional_encoding_looped,3.2.4,59.849509839529254,
,,,,,,,,,,,,,,,images/mug.png,C,object ,54,indirect,,,,,,,,,,,,,,,,,,,,,,,,,,,,,,,,,,,,,,,,,,,,,,,,,,,,,,,,,,,,,,,,,,,,,,,,,,,,,,,,,0,53,53,53,,,,,,,,,,,,,,,,,,,,,,,,,,,,,,,,,,,,,,,,,,,,,,,,,,,,,,,,,,,,,,,152.295123754011,None,None,152.295123754011,None,152.295123754011,None,152.295123754011,None,152.295123754011,None,152.295123754011,None,154.27963001601165,None,6,001,,,2020_Sep_07_1707,reactive_intentional_encoding_looped,3.2.4,59.849509839529254,
,,,,,,,,,,,,,,,images/amy_poehler_c.jpg,B,face,55,indirect,,,,,,,,,,,,,,,,,,,,,,,,,,,,,,,,,,,,,,,,,,,,,,,,,,,,,,,,,,,,,,,,,,,,,,,,,,,,,,,,,0,54,54,54,,,,,,,,,,,,,,,,,,,,,,,,,,,,,,,,,,,,,,,,,,,,,,,,,,,,,,,,,,,,,,,154.7945606150024,None,None,154.7945606150024,None,154.7945606150024,None,154.7945606150024,None,154.7945606150024,None,154.7945606150024,None,156.77935074700508,None,6,001,,,2020_Sep_07_1707,reactive_intentional_encoding_looped,3.2.4,59.849509839529254,
,,,,,,,,,,,,,,,images/ring_diamond.png,new,object ,56,None,,,,,,,,,,,,,,,,,,,,,,,,,,,,,,,,,,,,,,,,,,,,,,,,,,,,,,,,,,,,,,,,,,,,,,,,,,,,,,,,,0,55,55,55,,,,,,,,,,,,,,,,,,,,,,,,,,,,,,,,,,,,,,,,,,,,,,,,,,,,,,,,,,,,,,,157.2939912750153,None,None,157.2939912750153,None,157.2939912750153,None,157.2939912750153,None,157.2939912750153,None,157.2939912750153,None,159.2800407060131,None,6,001,,,2020_Sep_07_1707,reactive_intentional_encoding_looped,3.2.4,59.849509839529254,
,,,,,,,,,,,,,,,images/paddle_bread.png,C,object ,57,direct,,,,,,,,,,,,,,,,,,,,,,,,,,,,,,,,,,,,,,,,,,,,,,,,,,,,,,,,,,,,,,,,,,,,,,,,,,,,,,,,,0,56,56,56,,,,,,,,,,,,,,,,,,,,,,,,,,,,,,,,,,,,,,,,,,,,,,,,,,,,,,,,,,,,,,,159.79333442801726,None,None,159.79333442801726,None,159.79333442801726,None,159.79333442801726,None,159.79333442801726,None,159.79333442801726,None,161.78038873401238,None,6,001,,,2020_Sep_07_1707,reactive_intentional_encoding_looped,3.2.4,59.849509839529254,
,,,,,,,,,,,,,,,images/gaudi_cathedral_c.jpg,B,scene,58,direct,,,,,,,,,,,,,,,,,,,,,,,,,,,,,,,,,,,,,,,,,,,,,,,,,,,,,,,,,,,,,,,,,,,,,,,,,,,,,,,,,0,57,57,57,,,,,,,,,,,,,,,,,,,,,,,,,,,,,,,,,,,,,,,,,,,,,,,,,,,,,,,,,,,,,,,162.29397414601408,None,None,162.29397414601408,None,162.29397414601408,None,162.29397414601408,None,162.29397414601408,None,162.29397414601408,None,164.27964926400455,None,6,001,,,2020_Sep_07_1707,reactive_intentional_encoding_looped,3.2.4,59.849509839529254,
,,,,,,,,,,,,,,,images/notebook_black.png,C,object ,59,indirect,,,,,,,,,,,,,,,,,,,,,,,,,,,,,,,,,,,,,,,,,,,,,,,,,,,,,,,,,,,,,,,,,,,,,,,,,,,,,,,,,0,58,58,58,,,,,,,,,,,,,,,,,,,,,,,,,,,,,,,,,,,,,,,,,,,,,,,,,,,,,,,,,,,,,,,164.7925926379976,None,None,164.7925926379976,None,164.7925926379976,None,164.7925926379976,None,164.7925926379976,None,164.7925926379976,None,166.77842677698936,None,6,001,,,2020_Sep_07_1707,reactive_intentional_encoding_looped,3.2.4,59.849509839529254,
,,,,,,,,,,,,,,,images/forbidden_city_c.jpg,B,scene,60,indirect,,,,,,,,,,,,,,,,,,,,,,,,,,,,,,,,,,,,,,,,,,,,,,,,,,,,,,,,,,,,,,,,,,,,,,,,,,,,,,,,,0,59,59,59,,,,,,,,,,,,,,,,,,,,,,,,,,,,,,,,,,,,,,,,,,,,,,,,,,,,,,,,,,,,,,,167.29301631901762,None,None,167.29301631901762,None,167.29301631901762,None,167.29301631901762,None,167.29301631901762,None,167.29301631901762,None,169.27867725599208,None,6,001,,,2020_Sep_07_1707,reactive_intentional_encoding_looped,3.2.4,59.849509839529254,
,,,,,,,,,,,,,,,images/boat_sail.png,A,object ,61,None,,,,,,,,,,,,,,,,,,,,,,,,,,,,,,,,,,,,,,,,,,,,,,,,,,,,,,,,,,,,,,,,,,,,,,,,,,,,,,,,,0,60,60,60,,,,,,,,,,,,,,,,,,,,,,,,,,,,,,,,,,,,,,,,,,,,,,,,,,,,,,,,,,,,,,,169.79265130401473,None,None,169.79265130401473,None,169.79265130401473,None,169.79265130401473,None,169.79265130401473,None,169.79265130401473,None,171.7782285680005,None,6,001,,,2020_Sep_07_1707,reactive_intentional_encoding_looped,3.2.4,59.849509839529254,
,,,,,,,,,,,,,,,images/mike_myers_c.jpg,new,face,62,None,,,,,,,,,,,,,,,,,,,,,,,,,,,,,,,,,,,,,,,,,,,,,,,,,,,,,,,,,,,,,,,,,,,,,,,,,,,,,,,,,0,61,61,61,,,,,,,,,,,,,,,,,,,,,,,,,,,,,,,,,,,,,,,,,,,,,,,,,,,,,,,,,,,,,,,172.29241014600848,None,None,172.29241014600848,None,172.29241014600848,None,172.29241014600848,None,172.29241014600848,None,172.29241014600848,None,174.2793446140131,None,6,001,,,2020_Sep_07_1707,reactive_intentional_encoding_looped,3.2.4,59.849509839529254,
,,,,,,,,,,,,,,,images/flashlight.png,A,object ,63,None,,,,,,,,,,,,,,,,,,,,,,,,,,,,,,,,,,,,,,,,,,,,,,,,,,,,,,,,,,,,,,,,,,,,,,,,,,,,,,,,,0,62,62,62,,,,,,,,,,,,,,,,,,,,,,,,,,,,,,,,,,,,,,,,,,,,,,,,,,,,,,,,,,,,,,,174.79231795400847,None,None,174.79231795400847,None,174.79231795400847,None,174.79231795400847,None,174.79231795400847,None,174.79231795400847,None,176.77928658601013,None,6,001,,,2020_Sep_07_1707,reactive_intentional_encoding_looped,3.2.4,59.849509839529254,
,,,,,,,,,,,,,,,images/match.png,C,object ,64,direct,,,,,,,,,,,,,,,,,,,,,,,,,,,,,,,,,,,,,,,,,,,,,,,,,,,,,,,,,,,,,,,,,,,,,,,,,,,,,,,,,0,63,63,63,,,,,,,,,,,,,,,,,,,,,,,,,,,,,,,,,,,,,,,,,,,,,,,,,,,,,,,,,,,,,,,177.2834715229983,None,None,177.2834715229983,None,177.2834715229983,None,177.2834715229983,None,177.2834715229983,None,177.2834715229983,None,179.27793953299988,None,6,001,,,2020_Sep_07_1707,reactive_intentional_encoding_looped,3.2.4,59.849509839529254,
,,,,,,,,,,,,,,,images/grand_canyon_c.jpg,B,scene,65,direct,,,,,,,,,,,,,,,,,,,,,,,,,,,,,,,,,,,,,,,,,,,,,,,,,,,,,,,,,,,,,,,,,,,,,,,,,,,,,,,,,0,64,64,64,,,,,,,,,,,,,,,,,,,,,,,,,,,,,,,,,,,,,,,,,,,,,,,,,,,,,,,,,,,,,,,179.79106198300724,None,None,179.79106198300724,None,179.79106198300724,None,179.79106198300724,None,179.79106198300724,None,179.79106198300724,None,181.79088266001781,None,6,001,,,2020_Sep_07_1707,reactive_intentional_encoding_looped,3.2.4,59.849509839529254,
,,,,,,,,,,,,,,,images/scooter.png,A,object ,66,None,,,,,,,,,,,,,,,,,,,,,,,,,,,,,,,,,,,,,,,,,,,,,,,,,,,,,,,,,,,,,,,,,,,,,,,,,,,,,,,,,0,65,65,65,,,,,,,,,,,,,,,,,,,,,,,,,,,,,,,,,,,,,,,,,,,,,,,,,,,,,,,,,,,,,,,182.30044452799484,None,None,182.30044452799484,None,182.30044452799484,None,182.30044452799484,None,182.30044452799484,None,182.30044452799484,None,184.2805525510048,None,6,001,,,2020_Sep_07_1707,reactive_intentional_encoding_looped,3.2.4,59.849509839529254,
,,,,,,,,,,,,,,,images/paddle ball.jpg,C,object ,67,direct,,,,,,,,,,,,,,,,,,,,,,,,,,,,,,,,,,,,,,,,,,,,,,,,,,,,,,,,,,,,,,,,,,,,,,,,,,,,,,,,,0,66,66,66,,,,,,,,,,,,,,,,,,,,,,,,,,,,,,,,,,,,,,,,,,,,,,,,,,,,,,,,,,,,,,,184.7980031130137,None,None,184.7980031130137,None,184.7980031130137,None,184.7980031130137,None,184.7980031130137,None,184.7980031130137,None,186.7789914449968,None,6,001,,,2020_Sep_07_1707,reactive_intentional_encoding_looped,3.2.4,59.849509839529254,
,,,,,,,,,,,,,,,images/joshua_tree_c.jpg,B,scene,68,direct,,,,,,,,,,,,,,,,,,,,,,,,,,,,,,,,,,,,,,,,,,,,,,,,,,,,,,,,,,,,,,,,,,,,,,,,,,,,,,,,,0,67,67,67,,,,,,,,,,,,,,,,,,,,,,,,,,,,,,,,,,,,,,,,,,,,,,,,,,,,,,,,,,,,,,,187.2909621509898,None,None,187.2909621509898,None,187.2909621509898,None,187.2909621509898,None,187.2909621509898,None,187.2909621509898,None,189.29152733201045,None,6,001,,,2020_Sep_07_1707,reactive_intentional_encoding_looped,3.2.4,59.849509839529254,
,,,,,,,,,,,,,,,images/gametable_airhockey.png,A,object ,69,None,,,,,,,,,,,,,,,,,,,,,,,,,,,,,,,,,,,,,,,,,,,,,,,,,,,,,,,,,,,,,,,,,,,,,,,,,,,,,,,,,0,68,68,68,,,,,,,,,,,,,,,,,,,,,,,,,,,,,,,,,,,,,,,,,,,,,,,,,,,,,,,,,,,,,,,189.80720625500544,None,None,189.80720625500544,None,189.80720625500544,None,189.80720625500544,None,189.80720625500544,None,189.80720625500544,None,191.78996831699624,None,6,001,,,2020_Sep_07_1707,reactive_intentional_encoding_looped,3.2.4,59.849509839529254,
,,,,,,,,,,,,,,,images/guitar_electric.png,A,object ,70,None,,,,,,,,,,,,,,,,,,,,,,,,,,,,,,,,,,,,,,,,,,,,,,,,,,,,,,,,,,,,,,,,,,,,,,,,,,,,,,,,,0,69,69,69,,,,,,,,,,,,,,,,,,,,,,,,,,,,,,,,,,,,,,,,,,,,,,,,,,,,,,,,,,,,,,,192.30059621701366,None,None,192.30059621701366,None,192.30059621701366,None,192.30059621701366,None,192.30059621701366,None,192.30059621701366,None,194.27901148900855,None,6,001,,,2020_Sep_07_1707,reactive_intentional_encoding_looped,3.2.4,59.849509839529254,
,,,,,,,,,,,,,,,images/chain_rusty.png,A,object ,71,None,,,,,,,,,,,,,,,,,,,,,,,,,,,,,,,,,,,,,,,,,,,,,,,,,,,,,,,,,,,,,,,,,,,,,,,,,,,,,,,,,0,70,70,70,,,,,,,,,,,,,,,,,,,,,,,,,,,,,,,,,,,,,,,,,,,,,,,,,,,,,,,,,,,,,,,194.78957962800632,None,None,194.78957962800632,None,194.78957962800632,None,194.78957962800632,None,194.78957962800632,None,194.78957962800632,None,196.78981470799772,None,6,001,,,2020_Sep_07_1707,reactive_intentional_encoding_looped,3.2.4,59.849509839529254,
,,,,,,,,,,,,,,,images/fan.png,A,object ,72,None,,,,,,,,,,,,,,,,,,,,,,,,,,,,,,,,,,,,,,,,,,,,,,,,,,,,,,,,,,,,,,,,,,,,,,,,,,,,,,,,,0,71,71,71,,,,,,,,,,,,,,,,,,,,,,,,,,,,,,,,,,,,,,,,,,,,,,,,,,,,,,,,,,,,,,,197.30668027201318,None,None,197.30668027201318,None,197.30668027201318,None,197.30668027201318,None,197.30668027201318,None,197.30668027201318,None,199.2894397409982,None,6,001,,,2020_Sep_07_1707,reactive_intentional_encoding_looped,3.2.4,59.849509839529254,
,,,,,,,,,,,,,,,images/drum.png,A,object ,73,None,,,,,,,,,,,,,,,,,,,,,,,,,,,,,,,,,,,,,,,,,,,,,,,,,,,,,,,,,,,,,,,,,,,,,,,,,,,,,,,,,0,72,72,72,,,,,,,,,,,,,,,,,,,,,,,,,,,,,,,,,,,,,,,,,,,,,,,,,,,,,,,,,,,,,,,200.0242588389956,None,None,200.0242588389956,None,200.0242588389956,None,200.0242588389956,None,200.0242588389956,None,200.0242588389956,None,201.79002637101803,None,6,001,,,2020_Sep_07_1707,reactive_intentional_encoding_looped,3.2.4,59.849509839529254,
,,,,,,,,,,,,,,,images/mask_black.jpg,C,object ,74,indirect,,,,,,,,,,,,,,,,,,,,,,,,,,,,,,,,,,,,,,,,,,,,,,,,,,,,,,,,,,,,,,,,,,,,,,,,,,,,,,,,,0,73,73,73,,,,,,,,,,,,,,,,,,,,,,,,,,,,,,,,,,,,,,,,,,,,,,,,,,,,,,,,,,,,,,,202.31490157399094,None,None,202.31490157399094,None,202.31490157399094,None,202.31490157399094,None,202.31490157399094,None,202.31490157399094,None,204.27878842299106,None,6,001,,,2020_Sep_07_1707,reactive_intentional_encoding_looped,3.2.4,59.849509839529254,
,,,,,,,,,,,,,,,images/drew_barrymore_c.jpg,B,face,75,indirect,,,,,,,,,,,,,,,,,,,,,,,,,,,,,,,,,,,,,,,,,,,,,,,,,,,,,,,,,,,,,,,,,,,,,,,,,,,,,,,,,0,74,74,74,,,,,,,,,,,,,,,,,,,,,,,,,,,,,,,,,,,,,,,,,,,,,,,,,,,,,,,,,,,,,,,204.78923930801102,None,None,204.78923930801102,None,204.78923930801102,None,204.78923930801102,None,204.78923930801102,None,204.78923930801102,None,206.78775325600873,None,6,001,,,2020_Sep_07_1707,reactive_intentional_encoding_looped,3.2.4,59.849509839529254,
,,,,,,,,,,,,,,,images/milk_shake.jpg,C,object ,76,direct,,,,,,,,,,,,,,,,,,,,,,,,,,,,,,,,,,,,,,,,,,,,,,,,,,,,,,,,,,,,,,,,,,,,,,,,,,,,,,,,,0,75,75,75,,,,,,,,,,,,,,,,,,,,,,,,,,,,,,,,,,,,,,,,,,,,,,,,,,,,,,,,,,,,,,,207.29826150700683,None,None,207.29826150700683,None,207.29826150700683,None,207.29826150700683,None,207.29826150700683,None,207.29826150700683,None,209.2784373119939,None,6,001,,,2020_Sep_07_1707,reactive_intentional_encoding_looped,3.2.4,59.849509839529254,
,,,,,,,,,,,,,,,images/iguazu_falls_b.jpg,B,scene,77,direct,,,,,,,,,,,,,,,,,,,,,,,,,,,,,,,,,,,,,,,,,,,,,,,,,,,,,,,,,,,,,,,,,,,,,,,,,,,,,,,,,0,76,76,76,,,,,,,,,,,,,,,,,,,,,,,,,,,,,,,,,,,,,,,,,,,,,,,,,,,,,,,,,,,,,,,209.78819609401398,None,None,209.78819609401398,None,209.78819609401398,None,209.78819609401398,None,209.78819609401398,None,209.78819609401398,None,211.788396879012,None,6,001,,,2020_Sep_07_1707,reactive_intentional_encoding_looped,3.2.4,59.849509839529254,
,,,,,,,,,,,,,,,images/megaphone.png,C,object ,78,indirect,,,,,,,,,,,,,,,,,,,,,,,,,,,,,,,,,,,,,,,,,,,,,,,,,,,,,,,,,,,,,,,,,,,,,,,,,,,,,,,,,0,77,77,77,,,,,,,,,,,,,,,,,,,,,,,,,,,,,,,,,,,,,,,,,,,,,,,,,,,,,,,,,,,,,,,212.29536006000126,None,None,212.29536006000126,None,212.29536006000126,None,212.29536006000126,None,212.29536006000126,None,212.29536006000126,None,214.27890085801482,None,6,001,,,2020_Sep_07_1707,reactive_intentional_encoding_looped,3.2.4,59.849509839529254,
,,,,,,,,,,,,,,,images/mark_zuckerberg_c.jpg,B,face,79,indirect,,,,,,,,,,,,,,,,,,,,,,,,,,,,,,,,,,,,,,,,,,,,,,,,,,,,,,,,,,,,,,,,,,,,,,,,,,,,,,,,,0,78,78,78,,,,,,,,,,,,,,,,,,,,,,,,,,,,,,,,,,,,,,,,,,,,,,,,,,,,,,,,,,,,,,,214.78723920299672,None,None,214.78723920299672,None,214.78723920299672,None,214.78723920299672,None,214.78723920299672,None,214.78723920299672,None,216.78703548500198,None,6,001,,,2020_Sep_07_1707,reactive_intentional_encoding_looped,3.2.4,59.849509839529254,
,,,,,,,,,,,,,,,images/coin.jpg,new,object ,80,None,,,,,,,,,,,,,,,,,,,,,,,,,,,,,,,,,,,,,,,,,,,,,,,,,,,,,,,,,,,,,,,,,,,,,,,,,,,,,,,,,0,79,79,79,,,,,,,,,,,,,,,,,,,,,,,,,,,,,,,,,,,,,,,,,,,,,,,,,,,,,,,,,,,,,,,217.29902097801096,None,None,217.29902097801096,None,217.29902097801096,None,217.29902097801096,None,217.29902097801096,None,217.29902097801096,None,219.2785753479984,None,6,001,,,2020_Sep_07_1707,reactive_intentional_encoding_looped,3.2.4,59.849509839529254,
,,,,,,,,,,,,,,,images/toyTrain.png,C,object ,81,indirect,,,,,,,,,,,,,,,,,,,,,,,,,,,,,,,,,,,,,,,,,,,,,,,,,,,,,,,,,,,,,,,,,,,,,,,,,,,,,,,,,0,80,80,80,,,,,,,,,,,,,,,,,,,,,,,,,,,,,,,,,,,,,,,,,,,,,,,,,,,,,,,,,,,,,,,219.79108119299053,None,None,219.79108119299053,None,219.79108119299053,None,219.79108119299053,None,219.79108119299053,None,219.79108119299053,None,221.78712880500825,None,6,001,,,2020_Sep_07_1707,reactive_intentional_encoding_looped,3.2.4,59.849509839529254,
,,,,,,,,,,,,,,,images/bill_gates_a.jpg,B,face,82,indirect,,,,,,,,,,,,,,,,,,,,,,,,,,,,,,,,,,,,,,,,,,,,,,,,,,,,,,,,,,,,,,,,,,,,,,,,,,,,,,,,,0,81,81,81,,,,,,,,,,,,,,,,,,,,,,,,,,,,,,,,,,,,,,,,,,,,,,,,,,,,,,,,,,,,,,,222.28710743799456,None,None,222.28710743799456,None,222.28710743799456,None,222.28710743799456,None,222.28710743799456,None,222.28710743799456,None,224.28732664999552,None,6,001,,,2020_Sep_07_1707,reactive_intentional_encoding_looped,3.2.4,59.849509839529254,
,,,,,,,,,,,,,,,images/portapotty.png,A,object ,83,None,,,,,,,,,,,,,,,,,,,,,,,,,,,,,,,,,,,,,,,,,,,,,,,,,,,,,,,,,,,,,,,,,,,,,,,,,,,,,,,,,0,82,82,82,,,,,,,,,,,,,,,,,,,,,,,,,,,,,,,,,,,,,,,,,,,,,,,,,,,,,,,,,,,,,,,224.7952757079911,None,None,224.7952757079911,None,224.7952757079911,None,224.7952757079911,None,224.7952757079911,None,224.7952757079911,None,226.7787473660137,None,6,001,,,2020_Sep_07_1707,reactive_intentional_encoding_looped,3.2.4,59.849509839529254,
,,,,,,,,,,,,,,,images/shoe_pumps.jpg,A,object ,84,None,,,,,,,,,,,,,,,,,,,,,,,,,,,,,,,,,,,,,,,,,,,,,,,,,,,,,,,,,,,,,,,,,,,,,,,,,,,,,,,,,0,83,83,83,,,,,,,,,,,,,,,,,,,,,,,,,,,,,,,,,,,,,,,,,,,,,,,,,,,,,,,,,,,,,,,227.29610650101677,None,None,227.29610650101677,None,227.29610650101677,None,227.29610650101677,None,227.29610650101677,None,227.29610650101677,None,229.27849056999548,None,6,001,,,2020_Sep_07_1707,reactive_intentional_encoding_looped,3.2.4,59.849509839529254,
,,,,,,,,,,,,,,,images/ribbon.jpg,new,object ,85,None,,,,,,,,,,,,,,,,,,,,,,,,,,,,,,,,,,,,,,,,,,,,,,,,,,,,,,,,,,,,,,,,,,,,,,,,,,,,,,,,,0,84,84,84,,,,,,,,,,,,,,,,,,,,,,,,,,,,,,,,,,,,,,,,,,,,,,,,,,,,,,,,,,,,,,,229.79032290700707,None,None,229.79032290700707,None,229.79032290700707,None,229.79032290700707,None,229.79032290700707,None,229.79032290700707,None,231.77884680600255,None,6,001,,,2020_Sep_07_1707,reactive_intentional_encoding_looped,3.2.4,59.849509839529254,
,,,,,,,,,,,,,,,images/ring_diamond.png,A,object ,86,None,,,,,,,,,,,,,,,,,,,,,,,,,,,,,,,,,,,,,,,,,,,,,,,,,,,,,,,,,,,,,,,,,,,,,,,,,,,,,,,,,0,85,85,85,,,,,,,,,,,,,,,,,,,,,,,,,,,,,,,,,,,,,,,,,,,,,,,,,,,,,,,,,,,,,,,232.28564289500355,None,None,232.28564289500355,None,232.28564289500355,None,232.28564289500355,None,232.28564289500355,None,232.28564289500355,None,234.2787072469946,None,6,001,,,2020_Sep_07_1707,reactive_intentional_encoding_looped,3.2.4,59.849509839529254,
,,,,,,,,,,,,,,,images/teddybear_brown.jpg,C,object ,87,direct,,,,,,,,,,,,,,,,,,,,,,,,,,,,,,,,,,,,,,,,,,,,,,,,,,,,,,,,,,,,,,,,,,,,,,,,,,,,,,,,,0,86,86,86,,,,,,,,,,,,,,,,,,,,,,,,,,,,,,,,,,,,,,,,,,,,,,,,,,,,,,,,,,,,,,,234.79545389401028,None,None,234.79545389401028,None,234.79545389401028,None,234.79545389401028,None,234.79545389401028,None,234.79545389401028,None,236.77861549099907,None,6,001,,,2020_Sep_07_1707,reactive_intentional_encoding_looped,3.2.4,59.849509839529254,
,,,,,,,,,,,,,,,images/cn_tower_b.jpg,B,scene,88,direct,,,,,,,,,,,,,,,,,,,,,,,,,,,,,,,,,,,,,,,,,,,,,,,,,,,,,,,,,,,,,,,,,,,,,,,,,,,,,,,,,0,87,87,87,,,,,,,,,,,,,,,,,,,,,,,,,,,,,,,,,,,,,,,,,,,,,,,,,,,,,,,,,,,,,,,237.2884799070016,None,None,237.2884799070016,None,237.2884799070016,None,237.2884799070016,None,237.2884799070016,None,237.2884799070016,None,239.27793745399686,None,6,001,,,2020_Sep_07_1707,reactive_intentional_encoding_looped,3.2.4,59.849509839529254,
,,,,,,,,,,,,,,,images/ball_baseball.png,A,object ,89,None,,,,,,,,,,,,,,,,,,,,,,,,,,,,,,,,,,,,,,,,,,,,,,,,,,,,,,,,,,,,,,,,,,,,,,,,,,,,,,,,,0,88,88,88,,,,,,,,,,,,,,,,,,,,,,,,,,,,,,,,,,,,,,,,,,,,,,,,,,,,,,,,,,,,,,,239.78572554301354,None,None,239.78572554301354,None,239.78572554301354,None,239.78572554301354,None,239.78572554301354,None,239.78572554301354,None,241.7787862289988,None,6,001,,,2020_Sep_07_1707,reactive_intentional_encoding_looped,3.2.4,59.849509839529254,
,,,,,,,,,,,,,,,images/skirt.jpg,A,object ,90,None,,,,,,,,,,,,,,,,,,,,,,,,,,,,,,,,,,,,,,,,,,,,,,,,,,,,,,,,,,,,,,,,,,,,,,,,,,,,,,,,,0,89,89,89,,,,,,,,,,,,,,,,,,,,,,,,,,,,,,,,,,,,,,,,,,,,,,,,,,,,,,,,,,,,,,,242.28663186499034,None,None,242.28663186499034,None,242.28663186499034,None,242.28663186499034,None,242.28663186499034,None,242.28663186499034,None,244.27846302100806,None,6,001,,,2020_Sep_07_1707,reactive_intentional_encoding_looped,3.2.4,59.849509839529254,
,,,,,,,,,,,,,,,images/firehydrant.png,A,object ,91,None,,,,,,,,,,,,,,,,,,,,,,,,,,,,,,,,,,,,,,,,,,,,,,,,,,,,,,,,,,,,,,,,,,,,,,,,,,,,,,,,,0,90,90,90,,,,,,,,,,,,,,,,,,,,,,,,,,,,,,,,,,,,,,,,,,,,,,,,,,,,,,,,,,,,,,,244.79475839299266,None,None,244.79475839299266,None,244.79475839299266,None,244.79475839299266,None,244.79475839299266,None,244.79475839299266,None,246.77862239500973,None,6,001,,,2020_Sep_07_1707,reactive_intentional_encoding_looped,3.2.4,59.849509839529254,
,,,,,,,,,,,,,,,images/pacifier.png,C,object ,92,direct,,,,,,,,,,,,,,,,,,,,,,,,,,,,,,,,,,,,,,,,,,,,,,,,,,,,,,,,,,,,,,,,,,,,,,,,,,,,,,,,,0,91,91,91,,,,,,,,,,,,,,,,,,,,,,,,,,,,,,,,,,,,,,,,,,,,,,,,,,,,,,,,,,,,,,,247.28461919300025,None,None,247.28461919300025,None,247.28461919300025,None,247.28461919300025,None,247.28461919300025,None,247.28461919300025,None,249.27803888599738,None,6,001,,,2020_Sep_07_1707,reactive_intentional_encoding_looped,3.2.4,59.849509839529254,
,,,,,,,,,,,,,,,images/michelle_obama_a.jpg,B,face,93,direct,,,,,,,,,,,,,,,,,,,,,,,,,,,,,,,,,,,,,,,,,,,,,,,,,,,,,,,,,,,,,,,,,,,,,,,,,,,,,,,,,0,92,92,92,,,,,,,,,,,,,,,,,,,,,,,,,,,,,,,,,,,,,,,,,,,,,,,,,,,,,,,,,,,,,,,249.78417237300891,None,None,249.78417237300891,None,249.78417237300891,None,249.78417237300891,None,249.78417237300891,None,249.78417237300891,None,251.77834728101152,None,6,001,,,2020_Sep_07_1707,reactive_intentional_encoding_looped,3.2.4,59.849509839529254,
,,,,,,,,,,,,,,,images/drill.jpg,A,object ,94,None,,,,,,,,,,,,,,,,,,,,,,,,,,,,,,,,,,,,,,,,,,,,,,,,,,,,,,,,,,,,,,,,,,,,,,,,,,,,,,,,,0,93,93,93,,,,,,,,,,,,,,,,,,,,,,,,,,,,,,,,,,,,,,,,,,,,,,,,,,,,,,,,,,,,,,,252.2946628780046,None,None,252.2946628780046,None,252.2946628780046,None,252.2946628780046,None,252.2946628780046,None,252.2946628780046,None,254.27820653299568,None,6,001,,,2020_Sep_07_1707,reactive_intentional_encoding_looped,3.2.4,59.849509839529254,
,,,,,,,,,,,,,,,images/orlando_bloom_b.jpg,new,face,95,None,,,,,,,,,,,,,,,,,,,,,,,,,,,,,,,,,,,,,,,,,,,,,,,,,,,,,,,,,,,,,,,,,,,,,,,,,,,,,,,,,0,94,94,94,,,,,,,,,,,,,,,,,,,,,,,,,,,,,,,,,,,,,,,,,,,,,,,,,,,,,,,,,,,,,,,254.78389606400742,None,None,254.78389606400742,None,254.78389606400742,None,254.78389606400742,None,254.78389606400742,None,254.78389606400742,None,256.7784946220054,None,6,001,,,2020_Sep_07_1707,reactive_intentional_encoding_looped,3.2.4,59.849509839529254,
,,,,,,,,,,,,,,,images/bandage.jpg,A,object ,96,None,,,,,,,,,,,,,,,,,,,,,,,,,,,,,,,,,,,,,,,,,,,,,,,,,,,,,,,,,,,,,,,,,,,,,,,,,,,,,,,,,0,95,95,95,,,,,,,,,,,,,,,,,,,,,,,,,,,,,,,,,,,,,,,,,,,,,,,,,,,,,,,,,,,,,,,257.29462451601285,None,None,257.29462451601285,None,257.29462451601285,None,257.29462451601285,None,257.29462451601285,None,257.29462451601285,None,259.27792555699125,None,6,001,,,2020_Sep_07_1707,reactive_intentional_encoding_looped,3.2.4,59.849509839529254,
,,,,,,,,,,,,,,,images/waterloo_belgium.jpg,new,scene,97,None,,,,,,,,,,,,,,,,,,,,,,,,,,,,,,,,,,,,,,,,,,,,,,,,,,,,,,,,,,,,,,,,,,,,,,,,,,,,,,,,,0,96,96,96,,,,,,,,,,,,,,,,,,,,,,,,,,,,,,,,,,,,,,,,,,,,,,,,,,,,,,,,,,,,,,,259.7890793940169,None,None,259.7890793940169,None,259.7890793940169,None,259.7890793940169,None,259.7890793940169,None,259.7890793940169,None,261.77848139501293,None,6,001,,,2020_Sep_07_1707,reactive_intentional_encoding_looped,3.2.4,59.849509839529254,
,,,,,,,,,,,,,,,images/bib.png,A,object ,98,None,,,,,,,,,,,,,,,,,,,,,,,,,,,,,,,,,,,,,,,,,,,,,,,,,,,,,,,,,,,,,,,,,,,,,,,,,,,,,,,,,0,97,97,97,,,,,,,,,,,,,,,,,,,,,,,,,,,,,,,,,,,,,,,,,,,,,,,,,,,,,,,,,,,,,,,262.29445355499047,None,None,262.29445355499047,None,262.29445355499047,None,262.29445355499047,None,262.29445355499047,None,262.29445355499047,None,264.278494838014,None,6,001,,,2020_Sep_07_1707,reactive_intentional_encoding_looped,3.2.4,59.849509839529254,
