instructions1,Instructions2,Image1,Image2,Image3,Image_4,position_1x,position_1y,position_2x,position_2y,J_key,K_key,L_key,yes_text,no_text,Image,image_type,category,trial_number,pair_indicator,instruction_intentional_encoding.thisRepN,instruction_intentional_encoding.thisTrialN,instruction_intentional_encoding.thisN,instruction_intentional_encoding.thisIndex,practice_trials_intentional_encoding.thisRepN,practice_trials_intentional_encoding.thisTrialN,practice_trials_intentional_encoding.thisN,practice_trials_intentional_encoding.thisIndex,trials.thisRepN,trials.thisTrialN,trials.thisN,trials.thisIndex,trials_4.thisRepN,trials_4.thisTrialN,trials_4.thisN,trials_4.thisIndex,trials_2.thisRepN,trials_2.thisTrialN,trials_2.thisN,trials_2.thisIndex,trials_5.thisRepN,trials_5.thisTrialN,trials_5.thisN,trials_5.thisIndex,trials_3.thisRepN,trials_3.thisTrialN,trials_3.thisN,trials_3.thisIndex,trials_6.thisRepN,trials_6.thisTrialN,trials_6.thisN,trials_6.thisIndex,trials_7.thisRepN,trials_7.thisTrialN,trials_7.thisN,trials_7.thisIndex,trials_8.thisRepN,trials_8.thisTrialN,trials_8.thisN,trials_8.thisIndex,trials_9.thisRepN,trials_9.thisTrialN,trials_9.thisN,trials_9.thisIndex,trials_10.thisRepN,trials_10.thisTrialN,trials_10.thisN,trials_10.thisIndex,trials_11.thisRepN,trials_11.thisTrialN,trials_11.thisN,trials_11.thisIndex,trials_12.thisRepN,trials_12.thisTrialN,trials_12.thisN,trials_12.thisIndex,trials_13.thisRepN,trials_13.thisTrialN,trials_13.thisN,trials_13.thisIndex,trials_15.thisRepN,trials_15.thisTrialN,trials_15.thisN,trials_15.thisIndex,trials_18.thisRepN,trials_18.thisTrialN,trials_18.thisN,trials_18.thisIndex,trials_17.thisRepN,trials_17.thisTrialN,trials_17.thisN,trials_17.thisIndex,trials_19.thisRepN,trials_19.thisTrialN,trials_19.thisN,trials_19.thisIndex,trials_20.thisRepN,trials_20.thisTrialN,trials_20.thisN,trials_20.thisIndex,trials_21.thisRepN,trials_21.thisTrialN,trials_21.thisN,trials_21.thisIndex,text_9.started,text_9.stopped,key_resp_3.keys,key_resp_3.rt,key_resp_3.started,key_resp_3.stopped,post_retreival_practice_intructions.started,post_retreival_practice_intructions.stopped,key_resp_4.keys,key_resp_4.rt,key_resp_4.started,key_resp_4.stopped,text_12.started,text_12.stopped,key_resp_6.keys,key_resp_6.rt,key_resp_6.started,key_resp_6.stopped,text_13.started,text_13.stopped,key_resp_7.keys,key_resp_7.rt,key_resp_7.started,key_resp_7.stopped,text_15.started,text_15.stopped,key_resp_8.keys,key_resp_8.rt,key_resp_8.started,key_resp_8.stopped,text_2.started,text_2.stopped,key_resp_14.keys,key_resp_14.rt,key_resp_14.started,key_resp_14.stopped,text_14.started,text_14.stopped,pressspace.started,pressspace.stopped,key_resp_16.keys,key_resp_16.rt,key_resp_16.started,key_resp_16.stopped,image_17.started,image_17.stopped,Jkey.started,Jkey.stopped,F_key.started,F_key.stopped,oldText.started,oldText.stopped,newtext.started,newtext.stopped,text_27.started,text_27.stopped,key_resp_18.keys,key_resp_18.rt,key_resp_18.started,key_resp_18.stopped,image_oldnew.started,image_oldnew.stopped,imageabc.started,imageabc.stopped,key_resp_17.keys,key_resp_17.started,key_resp_17.stopped,Jkey_2.started,Jkey_2.stopped,F_key_2.started,F_key_2.stopped,old.started,old.stopped,newtext_2.started,newtext_2.stopped,fixation_.started,fixation_.stopped,key_resp_17.rt,participant,sex,age,,date,expName,psychopyVersion,frameRate,
,,,,,,,,,,,,,,,,,,,,,,,,,,,,,,,,,,,,,,,,,,,,,,,,,,,,,,,,,,,,,,,,,,,,,,,,,,,,,,,,,,,,,,,,,,,,,,,,,,,,,,,,9.562234935991,None,space,0.04913337898324244,10.029187003994593,None,,,,,,,,,,,,,,,,,,,,,,,,,,,,,,,,,,,,,,,,,,,,,,,,,,,,,,,,,,,,,,,,,,,,,,,,,8,001,,,2020_Sep_07_1725,reactive_intentional_encoding_looped,3.2.4,59.975739220303794,
,,,,,,,,,,,,,,,,,,,,,,,,,,,,,,,,,,,,,,,,,,,,,,,,,,,,,,,,,,,,,,,,,,,,,,,,,,,,,,,,,,,,,,,,,,,,,,,,,,,,,,,,,,,,,,10.128752565011382,None,space,0.2639249670028221,10.128752565011382,None,,,,,,,,,,,,,,,,,,,,,,,,,,,,,,,,,,,,,,,,,,,,,,,,,,,,,,,,,,,,,,,,,,,8,001,,,2020_Sep_07_1725,reactive_intentional_encoding_looped,3.2.4,59.975739220303794,
,,,,,,,,,,,,,,,,,,,,,,,,,,,,,,,,,,,,,,,,,,,,,,,,,,,,,,,,,,,,,,,,,,,,,,,,,,,,,,,,,,,,,,,,,,,,,,,,,,,,,,,,,,,,,,,,,,,,10.461624732997734,None,space,0.29707397299353033,10.66212247000658,None,,,,,,,,,,,,,,,,,,,,,,,,,,,,,,,,,,,,,,,,,,,,,,,,,,,,,,,,,,,,,8,001,,,2020_Sep_07_1725,reactive_intentional_encoding_looped,3.2.4,59.975739220303794,
,,,,,,,,,,,,,,,,,,,,,,,,,,,,,,,,,,,,,,,,,,,,,,,,,,,,,,,,,,,,,,,,,,,,,,,,,,,,,,,,,,,,,,,,,,,,,,,,,,,,,,,,,,,,,,,,,,,,,,,,,,10.995732913987013,None,space,0.25030915200477466,10.995732913987013,None,,,,,,,,,,,,,,,,,,,,,,,,,,,,,,,,,,,,,,,,,,,,,,,,,,,,,,,8,001,,,2020_Sep_07_1725,reactive_intentional_encoding_looped,3.2.4,59.975739220303794,
,,,,,,,,,,,,,,,,,,,,,,,,,,,,,,,,,,,,,,,,,,,,,,,,,,,,,,,,,,,,,,,,,,,,,,,,,,,,,,,,,,,,,,,,,,,,,,,,,,,,,,,,,,,,,,,,,,,,11.312515318015357,None,space,0.27391139400424436,11.529290081991348,None,,,,,,,,,,,,,,,,,,,,,,,,,,,,,,,,,,,,,,,,,,,,,,,,,,,,,,,,,,,,,8,001,,,2020_Sep_07_1725,reactive_intentional_encoding_looped,3.2.4,59.975739220303794,
,,,,,,,,,,,,,,,,,,,,,,,,,,,,,,,,,,,,,,,,,,,,,,,,,,,,,,,,,,,,,,,,,,,,,,,,,,,,,,,,,,,,,,,,,,,,,,,,,,,,,,,,,,,,,,,,,,,,,,,,,,11.845995479990961,None,space,0.22118532902095467,11.845995479990961,None,,,,,,,,,,,,,,,,,,,,,,,,,,,,,,,,,,,,,,,,,,,,,,,,,,,,,,,8,001,,,2020_Sep_07_1725,reactive_intentional_encoding_looped,3.2.4,59.975739220303794,
,,,,,,,,,,,,,,,,,,,,,,,,,,,,,,,,,,,,,,,,,,,,,,,,,,,,,,,,,,,,,,,,,,,,,,,,,,,,,,,,,,,,,,,,,,,,,,,,,,,,,,,,,,,,,,,,,,,,12.145693005004432,None,space,0.22638091101543978,12.34667250601342,None,,,,,,,,,,,,,,,,,,,,,,,,,,,,,,,,,,,,,,,,,,,,,,,,,,,,,,,,,,,,,8,001,,,2020_Sep_07_1725,reactive_intentional_encoding_looped,3.2.4,59.975739220303794,
,,,,,,,,,,,,,,,,,,,,,,,,,,,,,,,,,,,,,,,,,,,,,,,,,,,,,,,,,,,,,,,,,,,,,,,,,,,,,,,,,,,,,,,,,,,,,,,,,,,,,,,,,,,,,,,,,,,,,,,,,,12.600412510015303,None,space,0.21057887602364644,12.600412510015303,None,,,,,,,,,,,,,,,,,,,,,,,,,,,,,,,,,,,,,,,,,,,,,,,,,,,,,,,8,001,,,2020_Sep_07_1725,reactive_intentional_encoding_looped,3.2.4,59.975739220303794,
,,,,,,,,,,,,,,,,,,,,,,,,,,,,,,,,,,,,,,,,,,,,,,,,,,,,,,,,,,,,,,,,,,,,,,,,,,,,,,,,,,,,,,,,,,,,,,,,,,,,,,,,,,,,,,,,,,,,,,,,,,,,,,,,12.845387180015678,None,space,0.21161184200900607,12.845387180015678,None,,,,,,,,,,,,,,,,,,,,,,,,,,,,,,,,,,,,,,,,,,,,,,,,,8,001,,,2020_Sep_07_1725,reactive_intentional_encoding_looped,3.2.4,59.975739220303794,
,,,,,,,,,,,,,,,,,,,,,,,,,,,,,,,,,,,,,,,,,,,,,,,,,,,,,,,,,,,,,,,,,,,,,,,,,,,,,,,,,,,,,,,,,,,,,,,,,,,,,,,,,,,,,,,,,,,,,,,,,,,,,,,,,,,,,,13.114070075011114,None,space,0.17193759200745262,13.114070075011114,None,,,,,,,,,,,,,,,,,,,,,,,,,,,,,,,,,,,,,,,,,,,8,001,,,2020_Sep_07_1725,reactive_intentional_encoding_looped,3.2.4,59.975739220303794,
"You're now almost finished the task! In the last part, you will do another memory test. You will be shown an image, like below, on each trial. Your job is to indicate whether you have seen this image before. If you have seen the image before, press 'f' to indicate that it is old. If you haven't seen this image before, press 'j' to indicate the image is new.",Press space to continue!,instruction_images/oldBook.png,None,None,None,None,None,None,None,J,F,None,old,new,,,,,,,,,,,,,,,,,,,,,,,,,,,,,,,,,,,,,,,,,,,,,,,,,,,,,,,,,,,,,,,,,,,,,,,,,,,,,,0,0,0,0,,,,,,,,,,,,,,,,,,,,,,,,,,,,,,,,,,,,,,,,,,,,,13.512228298000991,None,13.512228298000991,None,space,0.02202130001387559,13.512228298000991,None,13.512228298000991,None,13.512228298000991,None,13.512228298000991,None,13.512228298000991,None,13.512228298000991,None,,,,,,,,,,,,,,,,,,,,,,,,,8,001,,,2020_Sep_07_1725,reactive_intentional_encoding_looped,3.2.4,59.975739220303794,
"Since you have seen the book before, you should select 'f' to indicate the book is old.",Press space to continue!,instruction_images/oldBook.png,None,None,None,None,None,None,None,J,F,None,old,new,,,,,,,,,,,,,,,,,,,,,,,,,,,,,,,,,,,,,,,,,,,,,,,,,,,,,,,,,,,,,,,,,,,,,,,,,,,,,,0,1,1,1,,,,,,,,,,,,,,,,,,,,,,,,,,,,,,,,,,,,,,,,,,,,,13.595450396009255,None,13.595450396009255,None,space,0.2047536660102196,13.595450396009255,None,13.595450396009255,None,13.595450396009255,None,13.595450396009255,None,13.595450396009255,None,13.595450396009255,None,,,,,,,,,,,,,,,,,,,,,,,,,8,001,,,2020_Sep_07_1725,reactive_intentional_encoding_looped,3.2.4,59.975739220303794,
This test is timed. You have a limit of 2 seconds to respond. So try to respond as quickly as possible.,Press space to continue!,instruction_images/oldBook.png,None,None,None,None,None,None,None,J,F,None,old,new,,,,,,,,,,,,,,,,,,,,,,,,,,,,,,,,,,,,,,,,,,,,,,,,,,,,,,,,,,,,,,,,,,,,,,,,,,,,,,0,2,2,2,,,,,,,,,,,,,,,,,,,,,,,,,,,,,,,,,,,,,,,,,,,,,13.861706318013603,None,13.861706318013603,None,space,0.20548674100427888,13.861706318013603,None,13.861706318013603,None,13.861706318013603,None,13.861706318013603,None,13.861706318013603,None,13.861706318013603,None,,,,,,,,,,,,,,,,,,,,,,,,,8,001,,,2020_Sep_07_1725,reactive_intentional_encoding_looped,3.2.4,59.975739220303794,
"First we will do a practice. When you’re ready to start the practice, press the space bar. ",Press space to continue!,instruction_images/oldBook.png,None,None,None,None,None,None,None,J,F,None,old,new,,,,,,,,,,,,,,,,,,,,,,,,,,,,,,,,,,,,,,,,,,,,,,,,,,,,,,,,,,,,,,,,,,,,,,,,,,,,,,0,3,3,3,,,,,,,,,,,,,,,,,,,,,,,,,,,,,,,,,,,,,,,,,,,,,14.129484322998906,None,14.129484322998906,None,space,0.20468657999299467,14.129484322998906,None,14.129484322998906,None,14.129484322998906,None,14.129484322998906,None,14.129484322998906,None,14.129484322998906,None,,,,,,,,,,,,,,,,,,,,,,,,,8,001,,,2020_Sep_07_1725,reactive_intentional_encoding_looped,3.2.4,59.975739220303794,
None,Press space to continue!,instruction_images/oldBook.png,None,None,None,None,None,None,None,J,F,None,old,new,,,,,,,,,,,,,,,,,,,,,,,,,,,,,,,,,,,,,,,,,,,,,,,,,,,,,,,,,,,,,,,,,,,,,,,,,,,,,,0,4,4,4,,,,,,,,,,,,,,,,,,,,,,,,,,,,,,,,,,,,,,,,,,,,,14.39567997699487,None,14.39567997699487,None,space,0.20542330198804848,14.39567997699487,None,14.39567997699487,None,14.39567997699487,None,14.39567997699487,None,14.39567997699487,None,14.39567997699487,None,,,,,,,,,,,,,,,,,,,,,,,,,8,001,,,2020_Sep_07_1725,reactive_intentional_encoding_looped,3.2.4,59.975739220303794,
,,,,,,,,,,,,,,,,,,,,,,,,,,,,,,,,,,,,,,,,,,,,,,,,,,,,,,,,,,,,,,,,,,,,,,,,,,,,,,,,,,,,,,,,,,,,,,,,,,,,,,,,,,,,,,,,,,,,,,,,,,,,,,,,,,,,,,,,,,,,,,,,,,,,,,,,,,,,,,14.647497914993437,None,space,1.6355808740190696,14.647497914993437,None,,,,,,,,,,,,,,,,,,,8,001,,,2020_Sep_07_1725,reactive_intentional_encoding_looped,3.2.4,59.975739220303794,
,,,,,,,,,,,,,,,images/quartz.png,A,object ,1,None,,,,,,,,,,,,,,,,,,,,,,,,,,,,,,,,,,,,,,,,,,,,,,,,,,,,,,,,,,,,,,,,,,,,,,,,,,,,,,,,,0,0,0,0,,,,,,,,,,,,,,,,,,,,,,,,,,,,,,,,,,,,,,,,,,,,,,,,,,,,,,,,,,,,,14.647497914993437,None,16.355090714001562,None,None,16.355090714001562,None,16.355090714001562,None,16.355090714001562,None,16.355090714001562,None,16.355090714001562,None,18.333958687988343,None,,8,001,,,2020_Sep_07_1725,reactive_intentional_encoding_looped,3.2.4,59.975739220303794,
,,,,,,,,,,,,,,,images/feather.png,A,object ,2,None,,,,,,,,,,,,,,,,,,,,,,,,,,,,,,,,,,,,,,,,,,,,,,,,,,,,,,,,,,,,,,,,,,,,,,,,,,,,,,,,,0,1,1,1,,,,,,,,,,,,,,,,,,,,,,,,,,,,,,,,,,,,,,,,,,,,,,,,,,,,,,,,,,,,,,,18.834788678010227,None,None,18.834788678010227,None,18.834788678010227,None,18.834788678010227,None,18.834788678010227,None,18.834788678010227,None,20.828122469014488,None,,8,001,,,2020_Sep_07_1725,reactive_intentional_encoding_looped,3.2.4,59.975739220303794,
,,,,,,,,,,,,,,,images/mannequin.jpg,A,object ,3,None,,,,,,,,,,,,,,,,,,,,,,,,,,,,,,,,,,,,,,,,,,,,,,,,,,,,,,,,,,,,,,,,,,,,,,,,,,,,,,,,,0,2,2,2,,,,,,,,,,,,,,,,,,,,,,,,,,,,,,,,,,,,,,,,,,,,,,,,,,,,,,,,,,,,,,,21.336567162012216,None,None,21.336567162012216,None,21.336567162012216,None,21.336567162012216,None,21.336567162012216,None,21.336567162012216,None,23.32852484000614,None,,8,001,,,2020_Sep_07_1725,reactive_intentional_encoding_looped,3.2.4,59.975739220303794,
,,,,,,,,,,,,,,,images/westminster_bbbey_b.jpg,new,scene,4,None,,,,,,,,,,,,,,,,,,,,,,,,,,,,,,,,,,,,,,,,,,,,,,,,,,,,,,,,,,,,,,,,,,,,,,,,,,,,,,,,,0,3,3,3,,,,,,,,,,,,,,,,,,,,,,,,,,,,,,,,,,,,,,,,,,,,,,,,,,,,,,,,,,,,,,,23.82120993701392,None,None,23.82120993701392,None,23.82120993701392,None,23.82120993701392,None,23.82120993701392,None,23.82120993701392,None,25.827623104007216,None,,8,001,,,2020_Sep_07_1725,reactive_intentional_encoding_looped,3.2.4,59.975739220303794,
,,,,,,,,,,,,,,,images/outhouse.png,C,object ,5,direct,,,,,,,,,,,,,,,,,,,,,,,,,,,,,,,,,,,,,,,,,,,,,,,,,,,,,,,,,,,,,,,,,,,,,,,,,,,,,,,,,0,4,4,4,,,,,,,,,,,,,,,,,,,,,,,,,,,,,,,,,,,,,,,,,,,,,,,,,,,,,,,,,,,,,,,26.334000870003365,None,None,26.334000870003365,None,26.334000870003365,None,26.334000870003365,None,26.334000870003365,None,26.334000870003365,None,28.327756706014043,None,,8,001,,,2020_Sep_07_1725,reactive_intentional_encoding_looped,3.2.4,59.975739220303794,
,,,,,,,,,,,,,,,images/neil_patrick_harris.jpg,B,face,6,direct,,,,,,,,,,,,,,,,,,,,,,,,,,,,,,,,,,,,,,,,,,,,,,,,,,,,,,,,,,,,,,,,,,,,,,,,,,,,,,,,,0,5,5,5,,,,,,,,,,,,,,,,,,,,,,,,,,,,,,,,,,,,,,,,,,,,,,,,,,,,,,,,,,,,,,,28.835065443010535,None,None,28.835065443010535,None,28.835065443010535,None,28.835065443010535,None,28.835065443010535,None,28.835065443010535,None,30.82853964000242,None,,8,001,,,2020_Sep_07_1725,reactive_intentional_encoding_looped,3.2.4,59.975739220303794,
,,,,,,,,,,,,,,,images/martin_scorsese_a.jpg,new,face,7,None,,,,,,,,,,,,,,,,,,,,,,,,,,,,,,,,,,,,,,,,,,,,,,,,,,,,,,,,,,,,,,,,,,,,,,,,,,,,,,,,,0,6,6,6,,,,,,,,,,,,,,,,,,,,,,,,,,,,,,,,,,,,,,,,,,,,,,,,,,,,,,,,,,,,,,,31.33141473500291,None,None,31.33141473500291,None,31.33141473500291,None,31.33141473500291,None,31.33141473500291,None,31.33141473500291,None,33.32849331901525,None,,8,001,,,2020_Sep_07_1725,reactive_intentional_encoding_looped,3.2.4,59.975739220303794,
,,,,,,,,,,,,,,,images/microwave.png,C,object ,8,direct,,,,,,,,,,,,,,,,,,,,,,,,,,,,,,,,,,,,,,,,,,,,,,,,,,,,,,,,,,,,,,,,,,,,,,,,,,,,,,,,,0,7,7,7,,,,,,,,,,,,,,,,,,,,,,,,,,,,,,,,,,,,,,,,,,,,,,,,,,,,,,,,,,,,,,,33.84450234999531,None,None,33.84450234999531,None,33.84450234999531,None,33.84450234999531,None,33.84450234999531,None,33.84450234999531,None,35.82770565399551,None,,8,001,,,2020_Sep_07_1725,reactive_intentional_encoding_looped,3.2.4,59.975739220303794,
,,,,,,,,,,,,,,,images/empire_state_building_a.jpg,B,scene,9,direct,,,,,,,,,,,,,,,,,,,,,,,,,,,,,,,,,,,,,,,,,,,,,,,,,,,,,,,,,,,,,,,,,,,,,,,,,,,,,,,,,0,8,8,8,,,,,,,,,,,,,,,,,,,,,,,,,,,,,,,,,,,,,,,,,,,,,,,,,,,,,,,,,,,,,,,36.335552623000694,None,None,36.335552623000694,None,36.335552623000694,None,36.335552623000694,None,36.335552623000694,None,36.335552623000694,None,38.32877640100196,None,,8,001,,,2020_Sep_07_1725,reactive_intentional_encoding_looped,3.2.4,59.975739220303794,
,,,,,,,,,,,,,,,images/pylonTraffic.jpg,new,object ,10,None,,,,,,,,,,,,,,,,,,,,,,,,,,,,,,,,,,,,,,,,,,,,,,,,,,,,,,,,,,,,,,,,,,,,,,,,,,,,,,,,,0,9,9,9,,,,,,,,,,,,,,,,,,,,,,,,,,,,,,,,,,,,,,,,,,,,,,,,,,,,,,,,,,,,,,,38.844730987999355,None,None,38.844730987999355,None,38.844730987999355,None,38.844730987999355,None,38.844730987999355,None,38.844730987999355,None,40.82827938901028,None,,8,001,,,2020_Sep_07_1725,reactive_intentional_encoding_looped,3.2.4,59.975739220303794,
,,,,,,,,,,,,,,,images/qtip.png,new,object ,11,None,,,,,,,,,,,,,,,,,,,,,,,,,,,,,,,,,,,,,,,,,,,,,,,,,,,,,,,,,,,,,,,,,,,,,,,,,,,,,,,,,0,10,10,10,,,,,,,,,,,,,,,,,,,,,,,,,,,,,,,,,,,,,,,,,,,,,,,,,,,,,,,,,,,,,,,41.33236802800093,None,None,41.33236802800093,None,41.33236802800093,None,41.33236802800093,None,41.33236802800093,None,41.33236802800093,None,43.328731415007496,None,,8,001,,,2020_Sep_07_1725,reactive_intentional_encoding_looped,3.2.4,59.975739220303794,
,,,,,,,,,,,,,,,images/washington_monument_a.jpg,new,scene,12,None,,,,,,,,,,,,,,,,,,,,,,,,,,,,,,,,,,,,,,,,,,,,,,,,,,,,,,,,,,,,,,,,,,,,,,,,,,,,,,,,,0,11,11,11,,,,,,,,,,,,,,,,,,,,,,,,,,,,,,,,,,,,,,,,,,,,,,,,,,,,,,,,,,,,,,,43.84396226899116,None,None,43.84396226899116,None,43.84396226899116,None,43.84396226899116,None,43.84396226899116,None,43.84396226899116,None,45.82785791499191,None,,8,001,,,2020_Sep_07_1725,reactive_intentional_encoding_looped,3.2.4,59.975739220303794,
,,,,,,,,,,,,,,,images/puzzlepiece.png,A,object ,13,None,,,,,,,,,,,,,,,,,,,,,,,,,,,,,,,,,,,,,,,,,,,,,,,,,,,,,,,,,,,,,,,,,,,,,,,,,,,,,,,,,0,12,12,12,,,,,,,,,,,,,,,,,,,,,,,,,,,,,,,,,,,,,,,,,,,,,,,,,,,,,,,,,,,,,,,46.34500804299023,None,None,46.34500804299023,None,46.34500804299023,None,46.34500804299023,None,46.34500804299023,None,46.34500804299023,None,48.32864776501083,None,,8,001,,,2020_Sep_07_1725,reactive_intentional_encoding_looped,3.2.4,59.975739220303794,
,,,,,,,,,,,,,,,images/newspaper_stack.png,C,object ,14,direct,,,,,,,,,,,,,,,,,,,,,,,,,,,,,,,,,,,,,,,,,,,,,,,,,,,,,,,,,,,,,,,,,,,,,,,,,,,,,,,,,0,13,13,13,,,,,,,,,,,,,,,,,,,,,,,,,,,,,,,,,,,,,,,,,,,,,,,,,,,,,,,,,,,,,,,48.844933337997645,None,None,48.844933337997645,None,48.844933337997645,None,48.844933337997645,None,48.844933337997645,None,48.844933337997645,None,50.82870360999368,None,,8,001,,,2020_Sep_07_1725,reactive_intentional_encoding_looped,3.2.4,59.975739220303794,
,,,,,,,,,,,,,,,images/james_franco_c.jpg,B,face,15,direct,,,,,,,,,,,,,,,,,,,,,,,,,,,,,,,,,,,,,,,,,,,,,,,,,,,,,,,,,,,,,,,,,,,,,,,,,,,,,,,,,0,14,14,14,,,,,,,,,,,,,,,,,,,,,,,,,,,,,,,,,,,,,,,,,,,,,,,,,,,,,,,,,,,,,,,51.344933927990496,None,None,51.344933927990496,None,51.344933927990496,None,51.344933927990496,None,51.344933927990496,None,51.344933927990496,None,53.32767492701532,None,,8,001,,,2020_Sep_07_1725,reactive_intentional_encoding_looped,3.2.4,59.975739220303794,
,,,,,,,,,,,,,,,images/donutFloaty.jpg,A,object ,16,None,,,,,,,,,,,,,,,,,,,,,,,,,,,,,,,,,,,,,,,,,,,,,,,,,,,,,,,,,,,,,,,,,,,,,,,,,,,,,,,,,0,15,15,15,,,,,,,,,,,,,,,,,,,,,,,,,,,,,,,,,,,,,,,,,,,,,,,,,,,,,,,,,,,,,,,53.84553873099503,None,None,53.84553873099503,None,53.84553873099503,None,53.84553873099503,None,53.84553873099503,None,53.84553873099503,None,55.82831563099171,None,,8,001,,,2020_Sep_07_1725,reactive_intentional_encoding_looped,3.2.4,59.975739220303794,
,,,,,,,,,,,,,,,images/lotus_temple_a.jpg,new,scene,17,None,,,,,,,,,,,,,,,,,,,,,,,,,,,,,,,,,,,,,,,,,,,,,,,,,,,,,,,,,,,,,,,,,,,,,,,,,,,,,,,,,0,16,16,16,,,,,,,,,,,,,,,,,,,,,,,,,,,,,,,,,,,,,,,,,,,,,,,,,,,,,,,,,,,,,,,56.34439865700551,None,None,56.34439865700551,None,56.34439865700551,None,56.34439865700551,None,56.34439865700551,None,56.34439865700551,None,58.361686947988346,None,,8,001,,,2020_Sep_07_1725,reactive_intentional_encoding_looped,3.2.4,59.975739220303794,
,,,,,,,,,,,,,,,images/antlerheadband.png,new,object ,18,None,,,,,,,,,,,,,,,,,,,,,,,,,,,,,,,,,,,,,,,,,,,,,,,,,,,,,,,,,,,,,,,,,,,,,,,,,,,,,,,,,0,17,17,17,,,,,,,,,,,,,,,,,,,,,,,,,,,,,,,,,,,,,,,,,,,,,,,,,,,,,,,,,,,,,,,58.845621410990134,None,None,58.845621410990134,None,58.845621410990134,None,58.845621410990134,None,58.845621410990134,None,58.845621410990134,None,60.828400021011475,None,,8,001,,,2020_Sep_07_1725,reactive_intentional_encoding_looped,3.2.4,59.975739220303794,
,,,,,,,,,,,,,,,images/champagne.jpg,A,object ,19,None,,,,,,,,,,,,,,,,,,,,,,,,,,,,,,,,,,,,,,,,,,,,,,,,,,,,,,,,,,,,,,,,,,,,,,,,,,,,,,,,,0,18,18,18,,,,,,,,,,,,,,,,,,,,,,,,,,,,,,,,,,,,,,,,,,,,,,,,,,,,,,,,,,,,,,,61.344500456994865,None,None,61.344500456994865,None,61.344500456994865,None,61.344500456994865,None,61.344500456994865,None,61.344500456994865,None,63.328011801990215,None,,8,001,,,2020_Sep_07_1725,reactive_intentional_encoding_looped,3.2.4,59.975739220303794,
,,,,,,,,,,,,,,,images/bag_gift.png,A,object ,20,None,,,,,,,,,,,,,,,,,,,,,,,,,,,,,,,,,,,,,,,,,,,,,,,,,,,,,,,,,,,,,,,,,,,,,,,,,,,,,,,,,0,19,19,19,,,,,,,,,,,,,,,,,,,,,,,,,,,,,,,,,,,,,,,,,,,,,,,,,,,,,,,,,,,,,,,63.84457571301027,None,None,63.84457571301027,None,63.84457571301027,None,63.84457571301027,None,63.84457571301027,None,63.84457571301027,None,65.82817302600597,None,,8,001,,,2020_Sep_07_1725,reactive_intentional_encoding_looped,3.2.4,59.975739220303794,
,,,,,,,,,,,,,,,images/trafalgar_square_a.jpg,new,scene,21,None,,,,,,,,,,,,,,,,,,,,,,,,,,,,,,,,,,,,,,,,,,,,,,,,,,,,,,,,,,,,,,,,,,,,,,,,,,,,,,,,,0,20,20,20,,,,,,,,,,,,,,,,,,,,,,,,,,,,,,,,,,,,,,,,,,,,,,,,,,,,,,,,,,,,,,,66.34433327199076,None,None,66.34433327199076,None,66.34433327199076,None,66.34433327199076,None,66.34433327199076,None,66.34433327199076,None,68.32692975999089,None,,8,001,,,2020_Sep_07_1725,reactive_intentional_encoding_looped,3.2.4,59.975739220303794,
,,,,,,,,,,,,,,,images/kirsten_dunst_a.jpg,new,face,22,None,,,,,,,,,,,,,,,,,,,,,,,,,,,,,,,,,,,,,,,,,,,,,,,,,,,,,,,,,,,,,,,,,,,,,,,,,,,,,,,,,0,21,21,21,,,,,,,,,,,,,,,,,,,,,,,,,,,,,,,,,,,,,,,,,,,,,,,,,,,,,,,,,,,,,,,68.84396834200015,None,None,68.84396834200015,None,68.84396834200015,None,68.84396834200015,None,68.84396834200015,None,68.84396834200015,None,70.84530273798737,None,,8,001,,,2020_Sep_07_1725,reactive_intentional_encoding_looped,3.2.4,59.975739220303794,
,,,,,,,,,,,,,,,images/pajamas.png,C,object ,23,direct,,,,,,,,,,,,,,,,,,,,,,,,,,,,,,,,,,,,,,,,,,,,,,,,,,,,,,,,,,,,,,,,,,,,,,,,,,,,,,,,,0,22,22,22,,,,,,,,,,,,,,,,,,,,,,,,,,,,,,,,,,,,,,,,,,,,,,,,,,,,,,,,,,,,,,,71.37842571700457,None,None,71.37842571700457,None,71.37842571700457,None,71.37842571700457,None,71.37842571700457,None,71.37842571700457,None,73.3274600529985,None,,8,001,,,2020_Sep_07_1725,reactive_intentional_encoding_looped,3.2.4,59.975739220303794,
,,,,,,,,,,,,,,,images/machu_picchu_c.jpg,B,scene,24,direct,,,,,,,,,,,,,,,,,,,,,,,,,,,,,,,,,,,,,,,,,,,,,,,,,,,,,,,,,,,,,,,,,,,,,,,,,,,,,,,,,0,23,23,23,,,,,,,,,,,,,,,,,,,,,,,,,,,,,,,,,,,,,,,,,,,,,,,,,,,,,,,,,,,,,,,73.84331048000604,None,None,73.84331048000604,None,73.84331048000604,None,73.84331048000604,None,73.84331048000604,None,73.84331048000604,None,75.82637381600216,None,,8,001,,,2020_Sep_07_1725,reactive_intentional_encoding_looped,3.2.4,59.975739220303794,
,,,,,,,,,,,,,,,images/mop.png,C,object ,25,indirect,,,,,,,,,,,,,,,,,,,,,,,,,,,,,,,,,,,,,,,,,,,,,,,,,,,,,,,,,,,,,,,,,,,,,,,,,,,,,,,,,0,24,24,24,,,,,,,,,,,,,,,,,,,,,,,,,,,,,,,,,,,,,,,,,,,,,,,,,,,,,,,,,,,,,,,76.34401706699282,None,None,76.34401706699282,None,76.34401706699282,None,76.34401706699282,None,76.34401706699282,None,76.34401706699282,None,78.32676089700544,None,,8,001,,,2020_Sep_07_1725,reactive_intentional_encoding_looped,3.2.4,59.975739220303794,
,,,,,,,,,,,,,,,images/golden_gate_bridge_b.jpg,B,scene,26,indirect,,,,,,,,,,,,,,,,,,,,,,,,,,,,,,,,,,,,,,,,,,,,,,,,,,,,,,,,,,,,,,,,,,,,,,,,,,,,,,,,,0,25,25,25,,,,,,,,,,,,,,,,,,,,,,,,,,,,,,,,,,,,,,,,,,,,,,,,,,,,,,,,,,,,,,,78.8426291430078,None,None,78.8426291430078,None,78.8426291430078,None,78.8426291430078,None,78.8426291430078,None,78.8426291430078,None,80.82824969000649,None,,8,001,,,2020_Sep_07_1725,reactive_intentional_encoding_looped,3.2.4,59.975739220303794,
,,,,,,,,,,,,,,,images/ozzy_osbourne_a.jpg,new,face,27,None,,,,,,,,,,,,,,,,,,,,,,,,,,,,,,,,,,,,,,,,,,,,,,,,,,,,,,,,,,,,,,,,,,,,,,,,,,,,,,,,,0,26,26,26,,,,,,,,,,,,,,,,,,,,,,,,,,,,,,,,,,,,,,,,,,,,,,,,,,,,,,,,,,,,,,,81.33181340899318,None,f,81.33181340899318,None,81.33181340899318,None,81.33181340899318,None,81.33181340899318,None,81.33181340899318,None,81.62952081501135,None,0.2783102819812484,8,001,,,2020_Sep_07_1725,reactive_intentional_encoding_looped,3.2.4,59.975739220303794,
,,,,,,,,,,,,,,,images/rollerblade.png,new,object ,28,None,,,,,,,,,,,,,,,,,,,,,,,,,,,,,,,,,,,,,,,,,,,,,,,,,,,,,,,,,,,,,,,,,,,,,,,,,,,,,,,,,0,27,27,27,,,,,,,,,,,,,,,,,,,,,,,,,,,,,,,,,,,,,,,,,,,,,,,,,,,,,,,,,,,,,,,82.15854423699784,None,f,82.15854423699784,None,82.15854423699784,None,82.15854423699784,None,82.15854423699784,None,82.15854423699784,None,82.41103456699057,None,0.21882251001079567,8,001,,,2020_Sep_07_1725,reactive_intentional_encoding_looped,3.2.4,59.975739220303794,
,,,,,,,,,,,,,,,images/motorcycle.png,C,object ,29,indirect,,,,,,,,,,,,,,,,,,,,,,,,,,,,,,,,,,,,,,,,,,,,,,,,,,,,,,,,,,,,,,,,,,,,,,,,,,,,,,,,,0,28,28,28,,,,,,,,,,,,,,,,,,,,,,,,,,,,,,,,,,,,,,,,,,,,,,,,,,,,,,,,,,,,,,,82.925602806994,None,f,82.925602806994,None,82.925602806994,None,82.925602806994,None,82.925602806994,None,82.925602806994,None,83.12834000200382,None,0.17867700799251907,8,001,,,2020_Sep_07_1725,reactive_intentional_encoding_looped,3.2.4,59.975739220303794,
,,,,,,,,,,,,,,,images/serengeti_c.jpg,B,scene,30,indirect,,,,,,,,,,,,,,,,,,,,,,,,,,,,,,,,,,,,,,,,,,,,,,,,,,,,,,,,,,,,,,,,,,,,,,,,,,,,,,,,,0,29,29,29,,,,,,,,,,,,,,,,,,,,,,,,,,,,,,,,,,,,,,,,,,,,,,,,,,,,,,,,,,,,,,,83.64270301599754,None,f,83.64270301599754,None,83.64270301599754,None,83.64270301599754,None,83.64270301599754,None,83.64270301599754,None,83.79521575101535,None,0.13473718898603693,8,001,,,2020_Sep_07_1725,reactive_intentional_encoding_looped,3.2.4,59.975739220303794,
,,,,,,,,,,,,,,,images/chest_toys.png,A,object ,31,None,,,,,,,,,,,,,,,,,,,,,,,,,,,,,,,,,,,,,,,,,,,,,,,,,,,,,,,,,,,,,,,,,,,,,,,,,,,,,,,,,0,30,30,30,,,,,,,,,,,,,,,,,,,,,,,,,,,,,,,,,,,,,,,,,,,,,,,,,,,,,,,,,,,,,,,84.32568809500663,None,f,84.32568809500663,None,84.32568809500663,None,84.32568809500663,None,84.32568809500663,None,84.32568809500663,None,84.49522949001403,None,0.13986342499265447,8,001,,,2020_Sep_07_1725,reactive_intentional_encoding_looped,3.2.4,59.975739220303794,
,,,,,,,,,,,,,,,images/razor.png,new,object ,32,None,,,,,,,,,,,,,,,,,,,,,,,,,,,,,,,,,,,,,,,,,,,,,,,,,,,,,,,,,,,,,,,,,,,,,,,,,,,,,,,,,0,31,31,31,,,,,,,,,,,,,,,,,,,,,,,,,,,,,,,,,,,,,,,,,,,,,,,,,,,,,,,,,,,,,,,85.02581523699337,None,f,85.02581523699337,None,85.02581523699337,None,85.02581523699337,None,85.02581523699337,None,85.02581523699337,None,85.12761458900059,None,0.0704619429889135,8,001,,,2020_Sep_07_1725,reactive_intentional_encoding_looped,3.2.4,59.975739220303794,
,,,,,,,,,,,,,,,images/st_basils_a.jpg,new,scene,33,None,,,,,,,,,,,,,,,,,,,,,,,,,,,,,,,,,,,,,,,,,,,,,,,,,,,,,,,,,,,,,,,,,,,,,,,,,,,,,,,,,0,32,32,32,,,,,,,,,,,,,,,,,,,,,,,,,,,,,,,,,,,,,,,,,,,,,,,,,,,,,,,,,,,,,,,85.64235978698707,None,f,85.64235978698707,None,85.64235978698707,None,85.64235978698707,None,85.64235978698707,None,85.64235978698707,None,85.82668799601379,None,0.1649404749914538,8,001,,,2020_Sep_07_1725,reactive_intentional_encoding_looped,3.2.4,59.975739220303794,
,,,,,,,,,,,,,,,images/balloon.jpg,A,object ,34,None,,,,,,,,,,,,,,,,,,,,,,,,,,,,,,,,,,,,,,,,,,,,,,,,,,,,,,,,,,,,,,,,,,,,,,,,,,,,,,,,,0,33,33,33,,,,,,,,,,,,,,,,,,,,,,,,,,,,,,,,,,,,,,,,,,,,,,,,,,,,,,,,,,,,,,,86.33174982399214,None,f,86.33174982399214,None,86.33174982399214,None,86.33174982399214,None,86.33174982399214,None,86.33174982399214,None,86.52847531199222,None,0.16446989600080997,8,001,,,2020_Sep_07_1725,reactive_intentional_encoding_looped,3.2.4,59.975739220303794,
,,,,,,,,,,,,,,,images/pentagon_a.jpg,new,scene,35,None,,,,,,,,,,,,,,,,,,,,,,,,,,,,,,,,,,,,,,,,,,,,,,,,,,,,,,,,,,,,,,,,,,,,,,,,,,,,,,,,,0,34,34,34,,,,,,,,,,,,,,,,,,,,,,,,,,,,,,,,,,,,,,,,,,,,,,,,,,,,,,,,,,,,,,,87.04145014399546,None,f,87.04145014399546,None,87.04145014399546,None,87.04145014399546,None,87.04145014399546,None,87.04145014399546,None,87.29351159499492,None,0.22598547500092536,8,001,,,2020_Sep_07_1725,reactive_intentional_encoding_looped,3.2.4,59.975739220303794,
,,,,,,,,,,,,,,,images/puppettheatre.png,new,object ,36,None,,,,,,,,,,,,,,,,,,,,,,,,,,,,,,,,,,,,,,,,,,,,,,,,,,,,,,,,,,,,,,,,,,,,,,,,,,,,,,,,,0,35,35,35,,,,,,,,,,,,,,,,,,,,,,,,,,,,,,,,,,,,,,,,,,,,,,,,,,,,,,,,,,,,,,,87.80866017300286,None,f,87.80866017300286,None,87.80866017300286,None,87.80866017300286,None,87.80866017300286,None,87.80866017300286,None,87.9946292770037,None,0.15551544199115597,8,001,,,2020_Sep_07_1725,reactive_intentional_encoding_looped,3.2.4,59.975739220303794,
,,,,,,,,,,,,,,,images/glasses_sun.png,A,object ,37,None,,,,,,,,,,,,,,,,,,,,,,,,,,,,,,,,,,,,,,,,,,,,,,,,,,,,,,,,,,,,,,,,,,,,,,,,,,,,,,,,,0,36,36,36,,,,,,,,,,,,,,,,,,,,,,,,,,,,,,,,,,,,,,,,,,,,,,,,,,,,,,,,,,,,,,,88.52500131301349,None,f,88.52500131301349,None,88.52500131301349,None,88.52500131301349,None,88.52500131301349,None,88.52500131301349,None,88.64477597401128,None,0.09706694900523871,8,001,,,2020_Sep_07_1725,reactive_intentional_encoding_looped,3.2.4,59.975739220303794,
,,,,,,,,,,,,,,,images/meg_ryan_b.jpg,new,face,38,None,,,,,,,,,,,,,,,,,,,,,,,,,,,,,,,,,,,,,,,,,,,,,,,,,,,,,,,,,,,,,,,,,,,,,,,,,,,,,,,,,0,37,37,37,,,,,,,,,,,,,,,,,,,,,,,,,,,,,,,,,,,,,,,,,,,,,,,,,,,,,,,,,,,,,,,89.17504681699211,None,f,89.17504681699211,None,89.17504681699211,None,89.17504681699211,None,89.17504681699211,None,89.17504681699211,None,89.31183364801109,None,0.11805243301205337,8,001,,,2020_Sep_07_1725,reactive_intentional_encoding_looped,3.2.4,59.975739220303794,
,,,,,,,,,,,,,,,images/origamiPaper.png,C,object ,39,direct,,,,,,,,,,,,,,,,,,,,,,,,,,,,,,,,,,,,,,,,,,,,,,,,,,,,,,,,,,,,,,,,,,,,,,,,,,,,,,,,,0,38,38,38,,,,,,,,,,,,,,,,,,,,,,,,,,,,,,,,,,,,,,,,,,,,,,,,,,,,,,,,,,,,,,,89.82727899201564,None,f,89.82727899201564,None,89.82727899201564,None,89.82727899201564,None,89.82727899201564,None,89.82727899201564,None,89.99556015999406,None,0.1509257690049708,8,001,,,2020_Sep_07_1725,reactive_intentional_encoding_looped,3.2.4,59.975739220303794,
,,,,,,,,,,,,,,,images/stonehenge_b.jpg,B,scene,40,direct,,,,,,,,,,,,,,,,,,,,,,,,,,,,,,,,,,,,,,,,,,,,,,,,,,,,,,,,,,,,,,,,,,,,,,,,,,,,,,,,,0,39,39,39,,,,,,,,,,,,,,,,,,,,,,,,,,,,,,,,,,,,,,,,,,,,,,,,,,,,,,,,,,,,,,,90.52569592298823,None,f,90.52569592298823,None,90.52569592298823,None,90.52569592298823,None,90.52569592298823,None,90.52569592298823,None,90.71168128101272,None,0.16138365599908866,8,001,,,2020_Sep_07_1725,reactive_intentional_encoding_looped,3.2.4,59.975739220303794,
,,,,,,,,,,,,,,,images/diving_board.jpg,A,object ,41,None,,,,,,,,,,,,,,,,,,,,,,,,,,,,,,,,,,,,,,,,,,,,,,,,,,,,,,,,,,,,,,,,,,,,,,,,,,,,,,,,,0,40,40,40,,,,,,,,,,,,,,,,,,,,,,,,,,,,,,,,,,,,,,,,,,,,,,,,,,,,,,,,,,,,,,,91.22468525898876,None,f,91.22468525898876,None,91.22468525898876,None,91.22468525898876,None,91.22468525898876,None,91.22468525898876,None,91.4781263860059,None,0.22232705901842564,8,001,,,2020_Sep_07_1725,reactive_intentional_encoding_looped,3.2.4,59.975739220303794,
,,,,,,,,,,,,,,,images/oven.png,C,object ,42,indirect,,,,,,,,,,,,,,,,,,,,,,,,,,,,,,,,,,,,,,,,,,,,,,,,,,,,,,,,,,,,,,,,,,,,,,,,,,,,,,,,,0,41,41,41,,,,,,,,,,,,,,,,,,,,,,,,,,,,,,,,,,,,,,,,,,,,,,,,,,,,,,,,,,,,,,,91.99139623800875,None,f,91.99139623800875,None,91.99139623800875,None,91.99139623800875,None,91.99139623800875,None,91.99139623800875,None,92.27758509901469,None,0.2690939729800448,8,001,,,2020_Sep_07_1725,reactive_intentional_encoding_looped,3.2.4,59.975739220303794,
,,,,,,,,,,,,,,,images/emma_stone.jpg,B,face,43,indirect,,,,,,,,,,,,,,,,,,,,,,,,,,,,,,,,,,,,,,,,,,,,,,,,,,,,,,,,,,,,,,,,,,,,,,,,,,,,,,,,,0,42,42,42,,,,,,,,,,,,,,,,,,,,,,,,,,,,,,,,,,,,,,,,,,,,,,,,,,,,,,,,,,,,,,,92.79109513599542,None,f,92.79109513599542,None,92.79109513599542,None,92.79109513599542,None,92.79109513599542,None,92.79109513599542,None,93.06123977800598,None,0.2468956210068427,8,001,,,2020_Sep_07_1725,reactive_intentional_encoding_looped,3.2.4,59.975739220303794,
,,,,,,,,,,,,,,,images/mel_gibson_c.jpg,new,face,44,None,,,,,,,,,,,,,,,,,,,,,,,,,,,,,,,,,,,,,,,,,,,,,,,,,,,,,,,,,,,,,,,,,,,,,,,,,,,,,,,,,0,43,43,43,,,,,,,,,,,,,,,,,,,,,,,,,,,,,,,,,,,,,,,,,,,,,,,,,,,,,,,,,,,,,,,93.57472910700017,None,f,93.57472910700017,None,93.57472910700017,None,93.57472910700017,None,93.57472910700017,None,93.57472910700017,None,93.84460685300292,None,0.23942451999755576,8,001,,,2020_Sep_07_1725,reactive_intentional_encoding_looped,3.2.4,59.975739220303794,
,,,,,,,,,,,,,,,images/white_house_a.jpg,new,scene,45,None,,,,,,,,,,,,,,,,,,,,,,,,,,,,,,,,,,,,,,,,,,,,,,,,,,,,,,,,,,,,,,,,,,,,,,,,,,,,,,,,,0,44,44,44,,,,,,,,,,,,,,,,,,,,,,,,,,,,,,,,,,,,,,,,,,,,,,,,,,,,,,,,,,,,,,,94.35786725798971,None,f,94.35786725798971,None,94.35786725798971,None,94.35786725798971,None,94.35786725798971,None,94.35786725798971,None,94.62907070398796,None,0.2531180650112219,8,001,,,2020_Sep_07_1725,reactive_intentional_encoding_looped,3.2.4,59.975739220303794,
,,,,,,,,,,,,,,,images/castle_sand.png,A,object ,46,None,,,,,,,,,,,,,,,,,,,,,,,,,,,,,,,,,,,,,,,,,,,,,,,,,,,,,,,,,,,,,,,,,,,,,,,,,,,,,,,,,0,45,45,45,,,,,,,,,,,,,,,,,,,,,,,,,,,,,,,,,,,,,,,,,,,,,,,,,,,,,,,,,,,,,,,95.1578601479996,None,f,95.1578601479996,None,95.1578601479996,None,95.1578601479996,None,95.1578601479996,None,95.1578601479996,None,95.36051078300807,None,0.18500526100979187,8,001,,,2020_Sep_07_1725,reactive_intentional_encoding_looped,3.2.4,59.975739220303794,
,,,,,,,,,,,,,,,images/pants.png,C,object ,47,direct,,,,,,,,,,,,,,,,,,,,,,,,,,,,,,,,,,,,,,,,,,,,,,,,,,,,,,,,,,,,,,,,,,,,,,,,,,,,,,,,,0,46,46,46,,,,,,,,,,,,,,,,,,,,,,,,,,,,,,,,,,,,,,,,,,,,,,,,,,,,,,,,,,,,,,,95.87488137299079,None,f,95.87488137299079,None,95.87488137299079,None,95.87488137299079,None,95.87488137299079,None,95.87488137299079,None,96.1108587970084,None,0.20306975999847054,8,001,,,2020_Sep_07_1725,reactive_intentional_encoding_looped,3.2.4,59.975739220303794,
,,,,,,,,,,,,,,,images/julia_roberts_c.jpg,B,face,48,direct,,,,,,,,,,,,,,,,,,,,,,,,,,,,,,,,,,,,,,,,,,,,,,,,,,,,,,,,,,,,,,,,,,,,,,,,,,,,,,,,,0,47,47,47,,,,,,,,,,,,,,,,,,,,,,,,,,,,,,,,,,,,,,,,,,,,,,,,,,,,,,,,,,,,,,,96.62462670300738,None,f,96.62462670300738,None,96.62462670300738,None,96.62462670300738,None,96.62462670300738,None,96.62462670300738,None,96.82825273601338,None,0.17539761701482348,8,001,,,2020_Sep_07_1725,reactive_intentional_encoding_looped,3.2.4,59.975739220303794,
,,,,,,,,,,,,,,,images/flipflopsBlue.png,A,object ,49,None,,,,,,,,,,,,,,,,,,,,,,,,,,,,,,,,,,,,,,,,,,,,,,,,,,,,,,,,,,,,,,,,,,,,,,,,,,,,,,,,,0,48,48,48,,,,,,,,,,,,,,,,,,,,,,,,,,,,,,,,,,,,,,,,,,,,,,,,,,,,,,,,,,,,,,,97.34083414598717,None,f,97.34083414598717,None,97.34083414598717,None,97.34083414598717,None,97.34083414598717,None,97.34083414598717,None,97.4773095450073,None,0.11294346800423227,8,001,,,2020_Sep_07_1725,reactive_intentional_encoding_looped,3.2.4,59.975739220303794,
,,,,,,,,,,,,,,,images/peppermill.png,C,object ,50,indirect,,,,,,,,,,,,,,,,,,,,,,,,,,,,,,,,,,,,,,,,,,,,,,,,,,,,,,,,,,,,,,,,,,,,,,,,,,,,,,,,,0,49,49,49,,,,,,,,,,,,,,,,,,,,,,,,,,,,,,,,,,,,,,,,,,,,,,,,,,,,,,,,,,,,,,,97.9905957049923,None,None,97.9905957049923,None,97.9905957049923,None,97.9905957049923,None,97.9905957049923,None,97.9905957049923,None,99.99425973300822,None,,8,001,,,2020_Sep_07_1725,reactive_intentional_encoding_looped,3.2.4,59.975739220303794,
,,,,,,,,,,,,,,,images/neuschwanstein_castle_c.jpg,B,scene,51,indirect,,,,,,,,,,,,,,,,,,,,,,,,,,,,,,,,,,,,,,,,,,,,,,,,,,,,,,,,,,,,,,,,,,,,,,,,,,,,,,,,,0,50,50,50,,,,,,,,,,,,,,,,,,,,,,,,,,,,,,,,,,,,,,,,,,,,,,,,,,,,,,,,,,,,,,,100.51123996099341,None,None,100.51123996099341,None,100.51123996099341,None,100.51123996099341,None,100.51123996099341,None,100.51123996099341,None,102.51242172901402,None,,8,001,,,2020_Sep_07_1725,reactive_intentional_encoding_looped,3.2.4,59.975739220303794,
,,,,,,,,,,,,,,,images/pen.png,C,object ,52,indirect,,,,,,,,,,,,,,,,,,,,,,,,,,,,,,,,,,,,,,,,,,,,,,,,,,,,,,,,,,,,,,,,,,,,,,,,,,,,,,,,,0,51,51,51,,,,,,,,,,,,,,,,,,,,,,,,,,,,,,,,,,,,,,,,,,,,,,,,,,,,,,,,,,,,,,,103.04013714299072,None,None,103.04013714299072,None,103.04013714299072,None,103.04013714299072,None,103.04013714299072,None,103.04013714299072,None,105.04391989199212,None,,8,001,,,2020_Sep_07_1725,reactive_intentional_encoding_looped,3.2.4,59.975739220303794,
,,,,,,,,,,,,,,,images/waikiki_c.jpg,B,scene,53,indirect,,,,,,,,,,,,,,,,,,,,,,,,,,,,,,,,,,,,,,,,,,,,,,,,,,,,,,,,,,,,,,,,,,,,,,,,,,,,,,,,,0,52,52,52,,,,,,,,,,,,,,,,,,,,,,,,,,,,,,,,,,,,,,,,,,,,,,,,,,,,,,,,,,,,,,,105.5566181440081,None,f,105.5566181440081,None,105.5566181440081,None,105.5566181440081,None,105.5566181440081,None,105.5566181440081,None,105.8269508650119,None,0.24490052802138962,8,001,,,2020_Sep_07_1725,reactive_intentional_encoding_looped,3.2.4,59.975739220303794,
,,,,,,,,,,,,,,,images/mug.png,C,object ,54,indirect,,,,,,,,,,,,,,,,,,,,,,,,,,,,,,,,,,,,,,,,,,,,,,,,,,,,,,,,,,,,,,,,,,,,,,,,,,,,,,,,,0,53,53,53,,,,,,,,,,,,,,,,,,,,,,,,,,,,,,,,,,,,,,,,,,,,,,,,,,,,,,,,,,,,,,,106.3399520140083,None,f,106.3399520140083,None,106.3399520140083,None,106.3399520140083,None,106.3399520140083,None,106.3399520140083,None,106.51088237200747,None,0.1496531309967395,8,001,,,2020_Sep_07_1725,reactive_intentional_encoding_looped,3.2.4,59.975739220303794,
,,,,,,,,,,,,,,,images/amy_poehler_c.jpg,B,face,55,indirect,,,,,,,,,,,,,,,,,,,,,,,,,,,,,,,,,,,,,,,,,,,,,,,,,,,,,,,,,,,,,,,,,,,,,,,,,,,,,,,,,0,54,54,54,,,,,,,,,,,,,,,,,,,,,,,,,,,,,,,,,,,,,,,,,,,,,,,,,,,,,,,,,,,,,,,107.02318415598711,None,f,107.02318415598711,None,107.02318415598711,None,107.02318415598711,None,107.02318415598711,None,107.02318415598711,None,107.20699599801446,None,0.15760280200629495,8,001,,,2020_Sep_07_1725,reactive_intentional_encoding_looped,3.2.4,59.975739220303794,
,,,,,,,,,,,,,,,images/ring_diamond.png,new,object ,56,None,,,,,,,,,,,,,,,,,,,,,,,,,,,,,,,,,,,,,,,,,,,,,,,,,,,,,,,,,,,,,,,,,,,,,,,,,,,,,,,,,0,55,55,55,,,,,,,,,,,,,,,,,,,,,,,,,,,,,,,,,,,,,,,,,,,,,,,,,,,,,,,,,,,,,,,107.72349101500004,None,f,107.72349101500004,None,107.72349101500004,None,107.72349101500004,None,107.72349101500004,None,107.72349101500004,None,107.87322561600013,None,0.1259258089994546,8,001,,,2020_Sep_07_1725,reactive_intentional_encoding_looped,3.2.4,59.975739220303794,
,,,,,,,,,,,,,,,images/paddle_bread.png,C,object ,57,direct,,,,,,,,,,,,,,,,,,,,,,,,,,,,,,,,,,,,,,,,,,,,,,,,,,,,,,,,,,,,,,,,,,,,,,,,,,,,,,,,,0,56,56,56,,,,,,,,,,,,,,,,,,,,,,,,,,,,,,,,,,,,,,,,,,,,,,,,,,,,,,,,,,,,,,,108.38093220200972,None,f,108.38093220200972,None,108.38093220200972,None,108.38093220200972,None,108.38093220200972,None,108.38093220200972,None,108.44396995799616,None,0.030522324988851324,8,001,,,2020_Sep_07_1725,reactive_intentional_encoding_looped,3.2.4,59.975739220303794,
,,,,,,,,,,,,,,,images/gaudi_cathedral_c.jpg,B,scene,58,direct,,,,,,,,,,,,,,,,,,,,,,,,,,,,,,,,,,,,,,,,,,,,,,,,,,,,,,,,,,,,,,,,,,,,,,,,,,,,,,,,,0,57,57,57,,,,,,,,,,,,,,,,,,,,,,,,,,,,,,,,,,,,,,,,,,,,,,,,,,,,,,,,,,,,,,,108.95614975699573,None,f,108.95614975699573,None,108.95614975699573,None,108.95614975699573,None,108.95614975699573,None,108.95614975699573,None,109.00711739901453,None,0.023528135003289208,8,001,,,2020_Sep_07_1725,reactive_intentional_encoding_looped,3.2.4,59.975739220303794,
,,,,,,,,,,,,,,,images/notebook_black.png,C,object ,59,indirect,,,,,,,,,,,,,,,,,,,,,,,,,,,,,,,,,,,,,,,,,,,,,,,,,,,,,,,,,,,,,,,,,,,,,,,,,,,,,,,,,0,58,58,58,,,,,,,,,,,,,,,,,,,,,,,,,,,,,,,,,,,,,,,,,,,,,,,,,,,,,,,,,,,,,,,109.523529211001,None,None,109.523529211001,None,109.523529211001,None,109.523529211001,None,109.523529211001,None,109.523529211001,None,111.52645638899412,None,,8,001,,,2020_Sep_07_1725,reactive_intentional_encoding_looped,3.2.4,59.975739220303794,
,,,,,,,,,,,,,,,images/forbidden_city_c.jpg,B,scene,60,indirect,,,,,,,,,,,,,,,,,,,,,,,,,,,,,,,,,,,,,,,,,,,,,,,,,,,,,,,,,,,,,,,,,,,,,,,,,,,,,,,,,0,59,59,59,,,,,,,,,,,,,,,,,,,,,,,,,,,,,,,,,,,,,,,,,,,,,,,,,,,,,,,,,,,,,,,112.03989780199481,None,None,112.03989780199481,None,112.03989780199481,None,112.03989780199481,None,112.03989780199481,None,112.03989780199481,None,114.03940082501504,None,,8,001,,,2020_Sep_07_1725,reactive_intentional_encoding_looped,3.2.4,59.975739220303794,
,,,,,,,,,,,,,,,images/boat_sail.png,A,object ,61,None,,,,,,,,,,,,,,,,,,,,,,,,,,,,,,,,,,,,,,,,,,,,,,,,,,,,,,,,,,,,,,,,,,,,,,,,,,,,,,,,,0,60,60,60,,,,,,,,,,,,,,,,,,,,,,,,,,,,,,,,,,,,,,,,,,,,,,,,,,,,,,,,,,,,,,,114.549346254993,None,None,114.549346254993,None,114.549346254993,None,114.549346254993,None,114.549346254993,None,114.549346254993,None,116.56269822499598,None,,8,001,,,2020_Sep_07_1725,reactive_intentional_encoding_looped,3.2.4,59.975739220303794,
,,,,,,,,,,,,,,,images/mike_myers_c.jpg,new,face,62,None,,,,,,,,,,,,,,,,,,,,,,,,,,,,,,,,,,,,,,,,,,,,,,,,,,,,,,,,,,,,,,,,,,,,,,,,,,,,,,,,,0,61,61,61,,,,,,,,,,,,,,,,,,,,,,,,,,,,,,,,,,,,,,,,,,,,,,,,,,,,,,,,,,,,,,,117.071169036004,None,None,117.071169036004,None,117.071169036004,None,117.071169036004,None,117.071169036004,None,117.071169036004,None,119.07159038199461,None,,8,001,,,2020_Sep_07_1725,reactive_intentional_encoding_looped,3.2.4,59.975739220303794,
,,,,,,,,,,,,,,,images/flashlight.png,A,object ,63,None,,,,,,,,,,,,,,,,,,,,,,,,,,,,,,,,,,,,,,,,,,,,,,,,,,,,,,,,,,,,,,,,,,,,,,,,,,,,,,,,,0,62,62,62,,,,,,,,,,,,,,,,,,,,,,,,,,,,,,,,,,,,,,,,,,,,,,,,,,,,,,,,,,,,,,,119.57874305700534,None,None,119.57874305700534,None,119.57874305700534,None,119.57874305700534,None,119.57874305700534,None,119.57874305700534,None,121.57864310400328,None,,8,001,,,2020_Sep_07_1725,reactive_intentional_encoding_looped,3.2.4,59.975739220303794,
,,,,,,,,,,,,,,,images/match.png,C,object ,64,direct,,,,,,,,,,,,,,,,,,,,,,,,,,,,,,,,,,,,,,,,,,,,,,,,,,,,,,,,,,,,,,,,,,,,,,,,,,,,,,,,,0,63,63,63,,,,,,,,,,,,,,,,,,,,,,,,,,,,,,,,,,,,,,,,,,,,,,,,,,,,,,,,,,,,,,,122.08730652200757,None,None,122.08730652200757,None,122.08730652200757,None,122.08730652200757,None,122.08730652200757,None,122.08730652200757,None,124.09428691401263,None,,8,001,,,2020_Sep_07_1725,reactive_intentional_encoding_looped,3.2.4,59.975739220303794,
,,,,,,,,,,,,,,,images/grand_canyon_c.jpg,B,scene,65,direct,,,,,,,,,,,,,,,,,,,,,,,,,,,,,,,,,,,,,,,,,,,,,,,,,,,,,,,,,,,,,,,,,,,,,,,,,,,,,,,,,0,64,64,64,,,,,,,,,,,,,,,,,,,,,,,,,,,,,,,,,,,,,,,,,,,,,,,,,,,,,,,,,,,,,,,124.60493688299903,None,j,124.60493688299903,None,124.60493688299903,None,124.60493688299903,None,124.60493688299903,None,124.60493688299903,None,126.3384513730125,None,1.7114067370130215,8,001,,,2020_Sep_07_1725,reactive_intentional_encoding_looped,3.2.4,59.975739220303794,
,,,,,,,,,,,,,,,images/scooter.png,A,object ,66,None,,,,,,,,,,,,,,,,,,,,,,,,,,,,,,,,,,,,,,,,,,,,,,,,,,,,,,,,,,,,,,,,,,,,,,,,,,,,,,,,,0,65,65,65,,,,,,,,,,,,,,,,,,,,,,,,,,,,,,,,,,,,,,,,,,,,,,,,,,,,,,,,,,,,,,,126.84616467199521,None,j,126.84616467199521,None,126.84616467199521,None,126.84616467199521,None,126.84616467199521,None,126.84616467199521,None,127.11060942400945,None,0.24678034699172713,8,001,,,2020_Sep_07_1725,reactive_intentional_encoding_looped,3.2.4,59.975739220303794,
,,,,,,,,,,,,,,,images/paddle ball.jpg,C,object ,67,direct,,,,,,,,,,,,,,,,,,,,,,,,,,,,,,,,,,,,,,,,,,,,,,,,,,,,,,,,,,,,,,,,,,,,,,,,,,,,,,,,,0,66,66,66,,,,,,,,,,,,,,,,,,,,,,,,,,,,,,,,,,,,,,,,,,,,,,,,,,,,,,,,,,,,,,,127.62796118299593,None,j,127.62796118299593,None,127.62796118299593,None,127.62796118299593,None,127.62796118299593,None,127.62796118299593,None,127.82723397298832,None,0.1793443470087368,8,001,,,2020_Sep_07_1725,reactive_intentional_encoding_looped,3.2.4,59.975739220303794,
,,,,,,,,,,,,,,,images/joshua_tree_c.jpg,B,scene,68,direct,,,,,,,,,,,,,,,,,,,,,,,,,,,,,,,,,,,,,,,,,,,,,,,,,,,,,,,,,,,,,,,,,,,,,,,,,,,,,,,,,0,67,67,67,,,,,,,,,,,,,,,,,,,,,,,,,,,,,,,,,,,,,,,,,,,,,,,,,,,,,,,,,,,,,,,128.33713200999773,None,j,128.33713200999773,None,128.33713200999773,None,128.33713200999773,None,128.33713200999773,None,128.33713200999773,None,128.50436352699762,None,0.1501950759848114,8,001,,,2020_Sep_07_1725,reactive_intentional_encoding_looped,3.2.4,59.975739220303794,
,,,,,,,,,,,,,,,images/gametable_airhockey.png,A,object ,69,None,,,,,,,,,,,,,,,,,,,,,,,,,,,,,,,,,,,,,,,,,,,,,,,,,,,,,,,,,,,,,,,,,,,,,,,,,,,,,,,,,0,68,68,68,,,,,,,,,,,,,,,,,,,,,,,,,,,,,,,,,,,,,,,,,,,,,,,,,,,,,,,,,,,,,,,129.0149696659937,None,j,129.0149696659937,None,129.0149696659937,None,129.0149696659937,None,129.0149696659937,None,129.0149696659937,None,129.22782581098727,None,0.18716649900306948,8,001,,,2020_Sep_07_1725,reactive_intentional_encoding_looped,3.2.4,59.975739220303794,
,,,,,,,,,,,,,,,images/guitar_electric.png,A,object ,70,None,,,,,,,,,,,,,,,,,,,,,,,,,,,,,,,,,,,,,,,,,,,,,,,,,,,,,,,,,,,,,,,,,,,,,,,,,,,,,,,,,0,69,69,69,,,,,,,,,,,,,,,,,,,,,,,,,,,,,,,,,,,,,,,,,,,,,,,,,,,,,,,,,,,,,,,129.7378222430125,None,j,129.7378222430125,None,129.7378222430125,None,129.7378222430125,None,129.7378222430125,None,129.7378222430125,None,129.95397239300655,None,0.1865135910047684,8,001,,,2020_Sep_07_1725,reactive_intentional_encoding_looped,3.2.4,59.975739220303794,
,,,,,,,,,,,,,,,images/chain_rusty.png,A,object ,71,None,,,,,,,,,,,,,,,,,,,,,,,,,,,,,,,,,,,,,,,,,,,,,,,,,,,,,,,,,,,,,,,,,,,,,,,,,,,,,,,,,0,70,70,70,,,,,,,,,,,,,,,,,,,,,,,,,,,,,,,,,,,,,,,,,,,,,,,,,,,,,,,,,,,,,,,130.46284633601317,None,j,130.46284633601317,None,130.46284633601317,None,130.46284633601317,None,130.46284633601317,None,130.46284633601317,None,130.5771567740012,None,0.08228776100440882,8,001,,,2020_Sep_07_1725,reactive_intentional_encoding_looped,3.2.4,59.975739220303794,
,,,,,,,,,,,,,,,images/fan.png,A,object ,72,None,,,,,,,,,,,,,,,,,,,,,,,,,,,,,,,,,,,,,,,,,,,,,,,,,,,,,,,,,,,,,,,,,,,,,,,,,,,,,,,,,0,71,71,71,,,,,,,,,,,,,,,,,,,,,,,,,,,,,,,,,,,,,,,,,,,,,,,,,,,,,,,,,,,,,,,131.087156286987,None,j,131.087156286987,None,131.087156286987,None,131.087156286987,None,131.087156286987,None,131.087156286987,None,131.20401158399181,None,0.09401802599313669,8,001,,,2020_Sep_07_1725,reactive_intentional_encoding_looped,3.2.4,59.975739220303794,
,,,,,,,,,,,,,,,images/drum.png,A,object ,73,None,,,,,,,,,,,,,,,,,,,,,,,,,,,,,,,,,,,,,,,,,,,,,,,,,,,,,,,,,,,,,,,,,,,,,,,,,,,,,,,,,0,72,72,72,,,,,,,,,,,,,,,,,,,,,,,,,,,,,,,,,,,,,,,,,,,,,,,,,,,,,,,,,,,,,,,131.93434953899123,None,j,131.93434953899123,None,131.93434953899123,None,131.93434953899123,None,131.93434953899123,None,131.93434953899123,None,132.4368035630032,None,0.4770111250109039,8,001,,,2020_Sep_07_1725,reactive_intentional_encoding_looped,3.2.4,59.975739220303794,
,,,,,,,,,,,,,,,images/mask_black.jpg,C,object ,74,indirect,,,,,,,,,,,,,,,,,,,,,,,,,,,,,,,,,,,,,,,,,,,,,,,,,,,,,,,,,,,,,,,,,,,,,,,,,,,,,,,,,0,73,73,73,,,,,,,,,,,,,,,,,,,,,,,,,,,,,,,,,,,,,,,,,,,,,,,,,,,,,,,,,,,,,,,132.96031100698747,None,j,132.96031100698747,None,132.96031100698747,None,132.96031100698747,None,132.96031100698747,None,132.96031100698747,None,133.0597207020037,None,0.07677300900104456,8,001,,,2020_Sep_07_1725,reactive_intentional_encoding_looped,3.2.4,59.975739220303794,
,,,,,,,,,,,,,,,images/drew_barrymore_c.jpg,B,face,75,indirect,,,,,,,,,,,,,,,,,,,,,,,,,,,,,,,,,,,,,,,,,,,,,,,,,,,,,,,,,,,,,,,,,,,,,,,,,,,,,,,,,0,74,74,74,,,,,,,,,,,,,,,,,,,,,,,,,,,,,,,,,,,,,,,,,,,,,,,,,,,,,,,,,,,,,,,133.56991698298953,None,j,133.56991698298953,None,133.56991698298953,None,133.56991698298953,None,133.56991698298953,None,133.56991698298953,None,133.73742396899615,None,0.13848246398265474,8,001,,,2020_Sep_07_1725,reactive_intentional_encoding_looped,3.2.4,59.975739220303794,
,,,,,,,,,,,,,,,images/milk_shake.jpg,C,object ,76,direct,,,,,,,,,,,,,,,,,,,,,,,,,,,,,,,,,,,,,,,,,,,,,,,,,,,,,,,,,,,,,,,,,,,,,,,,,,,,,,,,,0,75,75,75,,,,,,,,,,,,,,,,,,,,,,,,,,,,,,,,,,,,,,,,,,,,,,,,,,,,,,,,,,,,,,,134.26096492100623,None,j,134.26096492100623,None,134.26096492100623,None,134.26096492100623,None,134.26096492100623,None,134.26096492100623,None,134.44464150900603,None,0.16551720100687817,8,001,,,2020_Sep_07_1725,reactive_intentional_encoding_looped,3.2.4,59.975739220303794,
,,,,,,,,,,,,,,,images/iguazu_falls_b.jpg,B,scene,77,direct,,,,,,,,,,,,,,,,,,,,,,,,,,,,,,,,,,,,,,,,,,,,,,,,,,,,,,,,,,,,,,,,,,,,,,,,,,,,,,,,,0,76,76,76,,,,,,,,,,,,,,,,,,,,,,,,,,,,,,,,,,,,,,,,,,,,,,,,,,,,,,,,,,,,,,,134.95349442699808,None,j,134.95349442699808,None,134.95349442699808,None,134.95349442699808,None,134.95349442699808,None,134.95349442699808,None,135.25379926199093,None,0.26744946200051345,8,001,,,2020_Sep_07_1725,reactive_intentional_encoding_looped,3.2.4,59.975739220303794,
,,,,,,,,,,,,,,,images/megaphone.png,C,object ,78,indirect,,,,,,,,,,,,,,,,,,,,,,,,,,,,,,,,,,,,,,,,,,,,,,,,,,,,,,,,,,,,,,,,,,,,,,,,,,,,,,,,,0,77,77,77,,,,,,,,,,,,,,,,,,,,,,,,,,,,,,,,,,,,,,,,,,,,,,,,,,,,,,,,,,,,,,,135.76065224900958,None,j,135.76065224900958,None,135.76065224900958,None,135.76065224900958,None,135.76065224900958,None,135.76065224900958,None,136.11302235600306,None,0.3339050429931376,8,001,,,2020_Sep_07_1725,reactive_intentional_encoding_looped,3.2.4,59.975739220303794,
,,,,,,,,,,,,,,,images/mark_zuckerberg_c.jpg,B,face,79,indirect,,,,,,,,,,,,,,,,,,,,,,,,,,,,,,,,,,,,,,,,,,,,,,,,,,,,,,,,,,,,,,,,,,,,,,,,,,,,,,,,,0,78,78,78,,,,,,,,,,,,,,,,,,,,,,,,,,,,,,,,,,,,,,,,,,,,,,,,,,,,,,,,,,,,,,,136.63743097899714,None,j,136.63743097899714,None,136.63743097899714,None,136.63743097899714,None,136.63743097899714,None,136.63743097899714,None,136.95326252299128,None,0.2887856990273576,8,001,,,2020_Sep_07_1725,reactive_intentional_encoding_looped,3.2.4,59.975739220303794,
,,,,,,,,,,,,,,,images/coin.jpg,new,object ,80,None,,,,,,,,,,,,,,,,,,,,,,,,,,,,,,,,,,,,,,,,,,,,,,,,,,,,,,,,,,,,,,,,,,,,,,,,,,,,,,,,,0,79,79,79,,,,,,,,,,,,,,,,,,,,,,,,,,,,,,,,,,,,,,,,,,,,,,,,,,,,,,,,,,,,,,,137.46435717499116,None,j,137.46435717499116,None,137.46435717499116,None,137.46435717499116,None,137.46435717499116,None,137.46435717499116,None,137.66027288499754,None,0.17071735000354238,8,001,,,2020_Sep_07_1725,reactive_intentional_encoding_looped,3.2.4,59.975739220303794,
,,,,,,,,,,,,,,,images/toyTrain.png,C,object ,81,indirect,,,,,,,,,,,,,,,,,,,,,,,,,,,,,,,,,,,,,,,,,,,,,,,,,,,,,,,,,,,,,,,,,,,,,,,,,,,,,,,,,0,80,80,80,,,,,,,,,,,,,,,,,,,,,,,,,,,,,,,,,,,,,,,,,,,,,,,,,,,,,,,,,,,,,,,138.17143123599817,None,j,138.17143123599817,None,138.17143123599817,None,138.17143123599817,None,138.17143123599817,None,138.17143123599817,None,138.26955652300967,None,0.07549114699941128,8,001,,,2020_Sep_07_1725,reactive_intentional_encoding_looped,3.2.4,59.975739220303794,
,,,,,,,,,,,,,,,images/bill_gates_a.jpg,B,face,82,indirect,,,,,,,,,,,,,,,,,,,,,,,,,,,,,,,,,,,,,,,,,,,,,,,,,,,,,,,,,,,,,,,,,,,,,,,,,,,,,,,,,0,81,81,81,,,,,,,,,,,,,,,,,,,,,,,,,,,,,,,,,,,,,,,,,,,,,,,,,,,,,,,,,,,,,,,138.77690379499109,None,j,138.77690379499109,None,138.77690379499109,None,138.77690379499109,None,138.77690379499109,None,138.77690379499109,None,138.91063601500355,None,0.10412290098611265,8,001,,,2020_Sep_07_1725,reactive_intentional_encoding_looped,3.2.4,59.975739220303794,
,,,,,,,,,,,,,,,images/portapotty.png,A,object ,83,None,,,,,,,,,,,,,,,,,,,,,,,,,,,,,,,,,,,,,,,,,,,,,,,,,,,,,,,,,,,,,,,,,,,,,,,,,,,,,,,,,0,82,82,82,,,,,,,,,,,,,,,,,,,,,,,,,,,,,,,,,,,,,,,,,,,,,,,,,,,,,,,,,,,,,,,139.42383773700567,None,j,139.42383773700567,None,139.42383773700567,None,139.42383773700567,None,139.42383773700567,None,139.42383773700567,None,139.55381913398742,None,0.10617532499600202,8,001,,,2020_Sep_07_1725,reactive_intentional_encoding_looped,3.2.4,59.975739220303794,
,,,,,,,,,,,,,,,images/shoe_pumps.jpg,A,object ,84,None,,,,,,,,,,,,,,,,,,,,,,,,,,,,,,,,,,,,,,,,,,,,,,,,,,,,,,,,,,,,,,,,,,,,,,,,,,,,,,,,,0,83,83,83,,,,,,,,,,,,,,,,,,,,,,,,,,,,,,,,,,,,,,,,,,,,,,,,,,,,,,,,,,,,,,,140.07047639001394,None,j,140.07047639001394,None,140.07047639001394,None,140.07047639001394,None,140.07047639001394,None,140.07047639001394,None,140.27077505999478,None,0.17939484800444916,8,001,,,2020_Sep_07_1725,reactive_intentional_encoding_looped,3.2.4,59.975739220303794,
,,,,,,,,,,,,,,,images/ribbon.jpg,new,object ,85,None,,,,,,,,,,,,,,,,,,,,,,,,,,,,,,,,,,,,,,,,,,,,,,,,,,,,,,,,,,,,,,,,,,,,,,,,,,,,,,,,,0,84,84,84,,,,,,,,,,,,,,,,,,,,,,,,,,,,,,,,,,,,,,,,,,,,,,,,,,,,,,,,,,,,,,,140.80296039298992,None,None,140.80296039298992,None,140.80296039298992,None,140.80296039298992,None,140.80296039298992,None,140.80296039298992,None,142.81007265599328,None,,8,001,,,2020_Sep_07_1725,reactive_intentional_encoding_looped,3.2.4,59.975739220303794,
,,,,,,,,,,,,,,,images/ring_diamond.png,A,object ,86,None,,,,,,,,,,,,,,,,,,,,,,,,,,,,,,,,,,,,,,,,,,,,,,,,,,,,,,,,,,,,,,,,,,,,,,,,,,,,,,,,,0,85,85,85,,,,,,,,,,,,,,,,,,,,,,,,,,,,,,,,,,,,,,,,,,,,,,,,,,,,,,,,,,,,,,,143.32801030098926,None,j,143.32801030098926,None,143.32801030098926,None,143.32801030098926,None,143.32801030098926,None,143.32801030098926,None,143.8104289289913,None,0.4538552360027097,8,001,,,2020_Sep_07_1725,reactive_intentional_encoding_looped,3.2.4,59.975739220303794,
,,,,,,,,,,,,,,,images/teddybear_brown.jpg,C,object ,87,direct,,,,,,,,,,,,,,,,,,,,,,,,,,,,,,,,,,,,,,,,,,,,,,,,,,,,,,,,,,,,,,,,,,,,,,,,,,,,,,,,,0,86,86,86,,,,,,,,,,,,,,,,,,,,,,,,,,,,,,,,,,,,,,,,,,,,,,,,,,,,,,,,,,,,,,,144.32745221600635,None,j,144.32745221600635,None,144.32745221600635,None,144.32745221600635,None,144.32745221600635,None,144.32745221600635,None,144.39392645901535,None,0.039567672996781766,8,001,,,2020_Sep_07_1725,reactive_intentional_encoding_looped,3.2.4,59.975739220303794,
,,,,,,,,,,,,,,,images/cn_tower_b.jpg,B,scene,88,direct,,,,,,,,,,,,,,,,,,,,,,,,,,,,,,,,,,,,,,,,,,,,,,,,,,,,,,,,,,,,,,,,,,,,,,,,,,,,,,,,,0,87,87,87,,,,,,,,,,,,,,,,,,,,,,,,,,,,,,,,,,,,,,,,,,,,,,,,,,,,,,,,,,,,,,,144.90351014700718,None,j,144.90351014700718,None,144.90351014700718,None,144.90351014700718,None,144.90351014700718,None,144.90351014700718,None,144.95255352000822,None,0.018096368003170937,8,001,,,2020_Sep_07_1725,reactive_intentional_encoding_looped,3.2.4,59.975739220303794,
,,,,,,,,,,,,,,,images/ball_baseball.png,A,object ,89,None,,,,,,,,,,,,,,,,,,,,,,,,,,,,,,,,,,,,,,,,,,,,,,,,,,,,,,,,,,,,,,,,,,,,,,,,,,,,,,,,,0,88,88,88,,,,,,,,,,,,,,,,,,,,,,,,,,,,,,,,,,,,,,,,,,,,,,,,,,,,,,,,,,,,,,,145.45965967999655,None,j,145.45965967999655,None,145.45965967999655,None,145.45965967999655,None,145.45965967999655,None,145.45965967999655,None,145.5271196780086,None,0.034914806979941204,8,001,,,2020_Sep_07_1725,reactive_intentional_encoding_looped,3.2.4,59.975739220303794,
,,,,,,,,,,,,,,,images/skirt.jpg,A,object ,90,None,,,,,,,,,,,,,,,,,,,,,,,,,,,,,,,,,,,,,,,,,,,,,,,,,,,,,,,,,,,,,,,,,,,,,,,,,,,,,,,,,0,89,89,89,,,,,,,,,,,,,,,,,,,,,,,,,,,,,,,,,,,,,,,,,,,,,,,,,,,,,,,,,,,,,,,146.03610846601077,None,j,146.03610846601077,None,146.03610846601077,None,146.03610846601077,None,146.03610846601077,None,146.03610846601077,None,146.10546338700806,None,0.04454795899800956,8,001,,,2020_Sep_07_1725,reactive_intentional_encoding_looped,3.2.4,59.975739220303794,
,,,,,,,,,,,,,,,images/firehydrant.png,A,object ,91,None,,,,,,,,,,,,,,,,,,,,,,,,,,,,,,,,,,,,,,,,,,,,,,,,,,,,,,,,,,,,,,,,,,,,,,,,,,,,,,,,,0,90,90,90,,,,,,,,,,,,,,,,,,,,,,,,,,,,,,,,,,,,,,,,,,,,,,,,,,,,,,,,,,,,,,,146.63574691300164,None,j,146.63574691300164,None,146.63574691300164,None,146.63574691300164,None,146.63574691300164,None,146.63574691300164,None,147.15159061399754,None,0.49678560602478683,8,001,,,2020_Sep_07_1725,reactive_intentional_encoding_looped,3.2.4,59.975739220303794,
,,,,,,,,,,,,,,,images/pacifier.png,C,object ,92,direct,,,,,,,,,,,,,,,,,,,,,,,,,,,,,,,,,,,,,,,,,,,,,,,,,,,,,,,,,,,,,,,,,,,,,,,,,,,,,,,,,0,91,91,91,,,,,,,,,,,,,,,,,,,,,,,,,,,,,,,,,,,,,,,,,,,,,,,,,,,,,,,,,,,,,,,147.6690126899921,None,j,147.6690126899921,None,147.6690126899921,None,147.6690126899921,None,147.6690126899921,None,147.6690126899921,None,147.78562891698675,None,0.0866064629808534,8,001,,,2020_Sep_07_1725,reactive_intentional_encoding_looped,3.2.4,59.975739220303794,
,,,,,,,,,,,,,,,images/michelle_obama_a.jpg,B,face,93,direct,,,,,,,,,,,,,,,,,,,,,,,,,,,,,,,,,,,,,,,,,,,,,,,,,,,,,,,,,,,,,,,,,,,,,,,,,,,,,,,,,0,92,92,92,,,,,,,,,,,,,,,,,,,,,,,,,,,,,,,,,,,,,,,,,,,,,,,,,,,,,,,,,,,,,,,148.30137229099637,None,j,148.30137229099637,None,148.30137229099637,None,148.30137229099637,None,148.30137229099637,None,148.30137229099637,None,148.43561100499937,None,0.10211219199118204,8,001,,,2020_Sep_07_1725,reactive_intentional_encoding_looped,3.2.4,59.975739220303794,
,,,,,,,,,,,,,,,images/drill.jpg,A,object ,94,None,,,,,,,,,,,,,,,,,,,,,,,,,,,,,,,,,,,,,,,,,,,,,,,,,,,,,,,,,,,,,,,,,,,,,,,,,,,,,,,,,0,93,93,93,,,,,,,,,,,,,,,,,,,,,,,,,,,,,,,,,,,,,,,,,,,,,,,,,,,,,,,,,,,,,,,148.9519198439957,None,j,148.9519198439957,None,148.9519198439957,None,148.9519198439957,None,148.9519198439957,None,148.9519198439957,None,149.01824427201063,None,0.037915722001343966,8,001,,,2020_Sep_07_1725,reactive_intentional_encoding_looped,3.2.4,59.975739220303794,
,,,,,,,,,,,,,,,images/orlando_bloom_b.jpg,new,face,95,None,,,,,,,,,,,,,,,,,,,,,,,,,,,,,,,,,,,,,,,,,,,,,,,,,,,,,,,,,,,,,,,,,,,,,,,,,,,,,,,,,0,94,94,94,,,,,,,,,,,,,,,,,,,,,,,,,,,,,,,,,,,,,,,,,,,,,,,,,,,,,,,,,,,,,,,149.526963693992,None,j,149.526963693992,None,149.526963693992,None,149.526963693992,None,149.526963693992,None,149.526963693992,None,149.5603522369929,None,0.016593194974120706,8,001,,,2020_Sep_07_1725,reactive_intentional_encoding_looped,3.2.4,59.975739220303794,
,,,,,,,,,,,,,,,images/bandage.jpg,A,object ,96,None,,,,,,,,,,,,,,,,,,,,,,,,,,,,,,,,,,,,,,,,,,,,,,,,,,,,,,,,,,,,,,,,,,,,,,,,,,,,,,,,,0,95,95,95,,,,,,,,,,,,,,,,,,,,,,,,,,,,,,,,,,,,,,,,,,,,,,,,,,,,,,,,,,,,,,,150.07615075798822,None,j,150.07615075798822,None,150.07615075798822,None,150.07615075798822,None,150.07615075798822,None,150.07615075798822,None,150.12713182301377,None,0.024622411001473665,8,001,,,2020_Sep_07_1725,reactive_intentional_encoding_looped,3.2.4,59.975739220303794,
,,,,,,,,,,,,,,,images/waterloo_belgium.jpg,new,scene,97,None,,,,,,,,,,,,,,,,,,,,,,,,,,,,,,,,,,,,,,,,,,,,,,,,,,,,,,,,,,,,,,,,,,,,,,,,,,,,,,,,,0,96,96,96,,,,,,,,,,,,,,,,,,,,,,,,,,,,,,,,,,,,,,,,,,,,,,,,,,,,,,,,,,,,,,,150.63899685099022,None,None,150.63899685099022,None,150.63899685099022,None,150.63899685099022,None,150.63899685099022,None,150.63899685099022,None,152.651636383991,None,,8,001,,,2020_Sep_07_1725,reactive_intentional_encoding_looped,3.2.4,59.975739220303794,
,,,,,,,,,,,,,,,images/bib.png,A,object ,98,None,,,,,,,,,,,,,,,,,,,,,,,,,,,,,,,,,,,,,,,,,,,,,,,,,,,,,,,,,,,,,,,,,,,,,,,,,,,,,,,,,0,97,97,97,,,,,,,,,,,,,,,,,,,,,,,,,,,,,,,,,,,,,,,,,,,,,,,,,,,,,,,,,,,,,,,153.17709870601539,None,None,153.17709870601539,None,153.17709870601539,None,153.17709870601539,None,153.17709870601539,None,153.17709870601539,None,155.19284033001168,None,,8,001,,,2020_Sep_07_1725,reactive_intentional_encoding_looped,3.2.4,59.975739220303794,
