instructions1,Instructions2,Image1,Image2,Image3,Image_4,position_1x,position_1y,position_2x,position_2y,J_key,K_key,L_key,yes_text,no_text,trial_in_list,image_a,location1,correct_category_pair,location2,location3,correct_image,List,trial_num,block,Trial,ImageA,ImageB,ImageC,CategoryB,ListNum,instruction_intentional_encoding.thisRepN,instruction_intentional_encoding.thisTrialN,instruction_intentional_encoding.thisN,instruction_intentional_encoding.thisIndex,practice_trials_intentional_encoding.thisRepN,practice_trials_intentional_encoding.thisTrialN,practice_trials_intentional_encoding.thisN,practice_trials_intentional_encoding.thisIndex,trials.thisRepN,trials.thisTrialN,trials.thisN,trials.thisIndex,trials_4.thisRepN,trials_4.thisTrialN,trials_4.thisN,trials_4.thisIndex,trials_2.thisRepN,trials_2.thisTrialN,trials_2.thisN,trials_2.thisIndex,text.started,text.stopped,instructions_text2.started,instructions_text2.stopped,response.keys,response.rt,response.started,response.stopped,image1.started,image1.stopped,image2.started,image2.stopped,J_press_instructions.started,J_press_instructions.stopped,F_key_instruct.started,F_key_instruct.stopped,arrow.started,arrow.stopped,yes_press.started,yes_press.stopped,no_press.started,no_press.stopped,imageA.started,imageA.stopped,b_image.started,b_image.stopped,text_9.started,text_9.stopped,key_resp_3.keys,key_resp_3.rt,key_resp_3.started,key_resp_3.stopped,image_pair1.started,image_pair1.stopped,image_pair2.started,image_pair2.stopped,text_3.started,text_3.stopped,text_4.started,text_4.stopped,image_3.started,image_3.stopped,key_resp.keys,key_resp.rt,key_resp.started,key_resp.stopped,text_5.started,text_5.stopped,text_8.started,text_8.stopped,key_resp_2.keys,key_resp_2.rt,key_resp_2.started,key_resp_2.stopped,image.started,image.stopped,image_2.started,image_2.stopped,image_5.started,image_5.stopped,image_6.started,image_6.stopped,K.started,K.stopped,L.started,L.stopped,J.started,J.stopped,participant,sex,age,,date,expName,psychopyVersion,frameRate,
"Welcome to the memory game! In this game, you must learn which images go together.",Press space to continue!,None,None,None,None,0.0,0.3,0.0,-0.4, , , , , ,,,,,,,,,,,,,,,,,0,0,0,0,,,,,,,,,,,,,,,,,9.541150269971695,None,9.541150269971695,None,space,0.4426128979830537,9.541150269971695,None,9.541150269971695,None,9.541150269971695,None,9.474526005971711,None,9.474526005971711,None,9.474526005971711,None,9.474526005971711,None,9.474526005971711,None,,,,,,,,,,,,,,,,,,,,,,,,,,,,,,,,,,,,,,,,,,,,,,,8,001,,,2020_Sep_05_1719,reactive_intentional_encoding_looped,3.2.4,60.848441709880404,
"You will see two images on the left and right side of the screen, like this.",Press space to continue!,instruction_images/jessica_alba.jpg,instruction_images/oldBook.png,None,None,0.0,0.3,0.0,-0.4, , , , , ,,,,,,,,,,,,,,,,,0,1,1,1,,,,,,,,,,,,,,,,,10.29109184499248,None,10.29109184499248,None,space,0.2646463019773364,10.29109184499248,None,10.29109184499248,None,10.29109184499248,None,10.027464951999718,None,10.027464951999718,None,10.027464951999718,None,10.027464951999718,None,10.027464951999718,None,,,,,,,,,,,,,,,,,,,,,,,,,,,,,,,,,,,,,,,,,,,,,,,8,001,,,2020_Sep_05_1719,reactive_intentional_encoding_looped,3.2.4,60.848441709880404,
Your job is to remember that these images go together. ,Press space to continue!,instruction_images/jessica_alba.jpg,instruction_images/oldBook.png,None,None,0.0,0.3,0.0,-0.4, , , , , ,,,,,,,,,,,,,,,,,0,2,2,2,,,,,,,,,,,,,,,,,10.69164123997325,None,10.69164123997325,None,space,0.14933882298646495,10.69164123997325,None,10.69164123997325,None,10.69164123997325,None,10.625018812977942,None,10.625018812977942,None,10.625018812977942,None,10.625018812977942,None,10.625018812977942,None,,,,,,,,,,,,,,,,,,,,,,,,,,,,,,,,,,,,,,,,,,,,,,,8,001,,,2020_Sep_05_1719,reactive_intentional_encoding_looped,3.2.4,60.848441709880404,
"You could link them through a story. For example, jessica alba likes books.",Press space to continue!,instruction_images/jessica_alba.jpg,instruction_images/oldBook.png,None,None,0.0,0.3,0.0,-0.4, , , , , ,,,,,,,,,,,,,,,,,0,3,3,3,,,,,,,,,,,,,,,,,10.975218805979239,None,10.975218805979239,None,space,0.16577081501600333,10.975218805979239,None,10.975218805979239,None,10.975218805979239,None,10.907752318977145,None,10.907752318977145,None,10.907752318977145,None,10.907752318977145,None,10.907752318977145,None,,,,,,,,,,,,,,,,,,,,,,,,,,,,,,,,,,,,,,,,,,,,,,,8,001,,,2020_Sep_05_1719,reactive_intentional_encoding_looped,3.2.4,60.848441709880404,
"After you see the images, we will test your memory.",Press space to continue!,instruction_images/jessica_alba.jpg,instruction_images/oldBook.png,None,None,0.0,0.3,0.0,-0.4, , , , , ,,,,,,,,,,,,,,,,,0,4,4,4,,,,,,,,,,,,,,,,,11.261077707982622,None,11.261077707982622,None,space,0.17767264100257307,11.261077707982622,None,11.261077707982622,None,11.261077707982622,None,11.190902079979423,None,11.190902079979423,None,11.190902079979423,None,11.190902079979423,None,11.190902079979423,None,,,,,,,,,,,,,,,,,,,,,,,,,,,,,,,,,,,,,,,,,,,,,,,8,001,,,2020_Sep_05_1719,reactive_intentional_encoding_looped,3.2.4,60.848441709880404,
"Get ready to see the images! Each pair will only last on the screen for a few seconds, so pay attention.",Press space to continue!,instruction_images/jessica_alba.jpg,instruction_images/oldBook.png,None,None,0.0,0.3,0.0,-0.4, , , , , ,,,,,,,,,,,,,,,,,0,5,5,5,,,,,,,,,,,,,,,,,11.56240189797245,None,11.56240189797245,None,space,0.1554866659862455,11.56240189797245,None,11.56240189797245,None,11.56240189797245,None,11.509234848985216,None,11.509234848985216,None,11.509234848985216,None,11.509234848985216,None,11.509234848985216,None,,,,,,,,,,,,,,,,,,,,,,,,,,,,,,,,,,,,,,,,,,,,,,,8,001,,,2020_Sep_05_1719,reactive_intentional_encoding_looped,3.2.4,60.848441709880404,
We'll first do a practice to get you familiar with the game.,Press space to continue!,instruction_images/jessica_alba.jpg,instruction_images/oldBook.png,None,None,0.0,0.3,0.0,-0.4, , , , , ,,,,,,,,,,,,,,,,,0,6,6,6,,,,,,,,,,,,,,,,,11.844352640997386,None,11.844352640997386,None,space,0.17158159898826852,11.844352640997386,None,11.844352640997386,None,11.844352640997386,None,11.77557637298014,None,11.77557637298014,None,11.77557637298014,None,11.77557637298014,None,11.77557637298014,None,,,,,,,,,,,,,,,,,,,,,,,,,,,,,,,,,,,,,,,,,,,,,,,8,001,,,2020_Sep_05_1719,reactive_intentional_encoding_looped,3.2.4,60.848441709880404,
"When you're ready to start the practice, press space!",Press space to continue!,None,None,None,None,0.0,0.0,None,None, , , , , ,,,,,,,,,,,,,,,,,0,7,7,7,,,,,,,,,,,,,,,,,12.124896044988418,None,12.124896044988418,None,space,0.16376972300349735,12.124896044988418,None,12.124896044988418,None,12.124896044988418,None,12.074273409991292,None,12.074273409991292,None,12.074273409991292,None,12.074273409991292,None,12.074273409991292,None,,,,,,,,,,,,,,,,,,,,,,,,,,,,,,,,,,,,,,,,,,,,,,,8,001,,,2020_Sep_05_1719,reactive_intentional_encoding_looped,3.2.4,60.848441709880404,
,,,,,,,,,,,,,,,1,images/giftbow01.png,images/willie_nelson_b.jpg,object-face,images/electricoutlet.png,images/chick.jpg,images/willie_nelson_b.jpg,0,0,practice,,,,,,,,,,,0,0,0,0,,,,,,,,,,,,,,,,,,,,,,,,,,,,,,,,,,,12.373773562983843,None,12.373773562983843,None,,,,,,,,,,,,,,,,,,,,,,,,,,,,,,,,,,,,,,,,,,,8,001,,,2020_Sep_05_1719,reactive_intentional_encoding_looped,3.2.4,60.848441709880404,
,,,,,,,,,,,,,,,2,images/globe.png,images/earrings_dangling.jpg,object-scene,images/wrigley_field_b.jpg,images/barrel.jpg,images/wrigley_field_b.jpg,0,0,practice,,,,,,,,,,,0,1,1,1,,,,,,,,,,,,,,,,,,,,,,,,,,,,,,,,,,,12.47510907598189,None,12.47510907598189,None,,,,,,,,,,,,,,,,,,,,,,,,,,,,,,,,,,,,,,,,,,,8,001,,,2020_Sep_05_1719,reactive_intentional_encoding_looped,3.2.4,60.848441709880404,
,,,,,,,,,,,,,,,3,images/glassBall.jpg,images/westminster_abbey_a.jpg,object-scene,images/beetle.png,images/statue_of_liberty.jpg,images/westminster_abbey_a.jpg,0,0,practice,,,,,,,,,,,0,2,2,2,,,,,,,,,,,,,,,,,,,,,,,,,,,,,,,,,,,12.59207415097626,None,12.59207415097626,None,,,,,,,,,,,,,,,,,,,,,,,,,,,,,,,,,,,,,,,,,,,8,001,,,2020_Sep_05_1719,reactive_intentional_encoding_looped,3.2.4,60.848441709880404,
,,,,,,,,,,,,,,,4,images/gazebo_wooden.png,images/ray_romano.jpg,object-face,images/john_stamos.jpg,images/natalie_portman.jpg,images/natalie_portman.jpg,0,0,practice,,,,,,,,,,,0,3,3,3,,,,,,,,,,,,,,,,,,,,,,,,,,,,,,,,,,,12.707924267975613,None,12.707924267975613,None,,,,,,,,,,,,,,,,,,,,,,,,,,,,,,,,,,,,,,,,,,,8,001,,,2020_Sep_05_1719,reactive_intentional_encoding_looped,3.2.4,60.848441709880404,
,,,,,,,,,,,,,,,5,images/helicopter.jpg,images/bench_park.png,object-face,images/bird_parrot.png,images/julia_louis_dreyfus.jpg,images/julia_louis_dreyfus.jpg,0,0,practice,,,,,,,,,,,0,4,4,4,,,,,,,,,,,,,,,,,,,,,,,,,,,,,,,,,,,12.791651118983282,None,12.791651118983282,None,,,,,,,,,,,,,,,,,,,,,,,,,,,,,,,,,,,,,,,,,,,8,001,,,2020_Sep_05_1719,reactive_intentional_encoding_looped,3.2.4,60.848441709880404,
,,,,,,,,,,,,,,,,,,,,,,,,,,,,,,,,,,,,,,,,,,,,,,,,,,,,,,,,,,,,,,,,,,,,,,,,,,,,,12.841452178981854,None,space,0.7830212260014378,13.307589584990637,None,,,,,,,,,,,,,,,,,,,,,,,,,,,,,,,,,,,,,8,001,,,2020_Sep_05_1719,reactive_intentional_encoding_looped,3.2.4,60.848441709880404,
,,,,,,,,,,,,,,,,,,,,,,,,,1,images/sundae_banana.jpg,images/eiffel_tower_c.jpg,images/mitten.png,object-scene,None,,,,,,,,,0,0,0,0,,,,,,,,,,,,,,,,,,,,,,,,,,,,,,,,,,,,,,,,,14.773784801975125,None,14.773784801975125,None,,,,,,,,,,,,,,,,,,,,,,,,,,,,,,,,,8,001,,,2020_Sep_05_1719,reactive_intentional_encoding_looped,3.2.4,60.848441709880404,
,,,,,,,,,,,,,,,,,,,,,,,,,2,images/castle_sand.png,images/gwen_stefani_c.jpg,images/mask_hockeygoalie.png,object-face,None,,,,,,,,,0,1,1,1,,,,,,,,,,,,,,,,,,,,,,,,,,,,,,,,,,,,,,,,,15.724154642986832,None,15.724154642986832,None,,,,,,,,,,,,,,,,,,,,,,,,,,,,,,,,,8,001,,,2020_Sep_05_1719,reactive_intentional_encoding_looped,3.2.4,60.848441709880404,
,,,,,,,,,,,,,,,,,,,,,,,,,3,images/checkers_board.png,images/golden_gate_bridge_b.jpg,images/mop.png,object-scene,None,,,,,,,,,0,2,2,2,,,,,,,,,,,,,,,,,,,,,,,,,,,,,,,,,,,,,,,,,16.89099749698653,None,16.89099749698653,None,,,,,,,,,,,,,,,,,,,,,,,,,,,,,,,,,8,001,,,2020_Sep_05_1719,reactive_intentional_encoding_looped,3.2.4,60.848441709880404,
,,,,,,,,,,,,,,,,,,,,,,,,,4,images/figurine_ballerina.jpg,images/courtney_cox_c.jpg,images/pan_muffin.png,object-face,None,,,,,,,,,0,3,3,3,,,,,,,,,,,,,,,,,,,,,,,,,,,,,,,,,,,,,,,,,17.723595037998166,None,17.723595037998166,None,,,,,,,,,,,,,,,,,,,,,,,,,,,,,,,,,8,001,,,2020_Sep_05_1719,reactive_intentional_encoding_looped,3.2.4,60.848441709880404,
,,,,,,,,,,,,,,,,,,,,,,,,,5,images/flute_wooden.jpg,images/jimmy_fallon.jpg,images/mechanic.jpg,object-face,None,,,,,,,,,0,4,4,4,,,,,,,,,,,,,,,,,,,,,,,,,,,,,,,,,,,,,,,,,18.691489495977294,None,18.691489495977294,None,,,,,,,,,,,,,,,,,,,,,,,,,,,,,,,,,8,001,,,2020_Sep_05_1719,reactive_intentional_encoding_looped,3.2.4,60.848441709880404,
,,,,,,,,,,,,,,,,,,,,,,,,,6,images/fuzzydice.jpg,images/ellen_degeneres_b.jpg,images/soap.png,object-face,None,,,,,,,,,0,5,5,5,,,,,,,,,,,,,,,,,,,,,,,,,,,,,,,,,,,,,,,,,19.62377082198509,None,19.62377082198509,None,,,,,,,,,,,,,,,,,,,,,,,,,,,,,,,,,8,001,,,2020_Sep_05_1719,reactive_intentional_encoding_looped,3.2.4,60.848441709880404,
,,,,,,,,,,,,,,,,,,,,,,,,,7,images/dog_toy.png,images/queen_elizabeth_a.jpg,images/paper towel.jpg,object-face,None,,,,,,,,,0,6,6,6,,,,,,,,,,,,,,,,,,,,,,,,,,,,,,,,,,,,,,,,,20.624258679978084,None,20.624258679978084,None,,,,,,,,,,,,,,,,,,,,,,,,,,,,,,,,,8,001,,,2020_Sep_05_1719,reactive_intentional_encoding_looped,3.2.4,60.848441709880404,
,,,,,,,,,,,,,,,,,,,,,,,,,8,images/champagne.jpg,images/arches_national_park_a.jpg,images/noisemaker.jpg,object-scene,None,,,,,,,,,0,7,7,7,,,,,,,,,,,,,,,,,,,,,,,,,,,,,,,,,,,,,,,,,21.624337948975153,None,21.624337948975153,None,,,,,,,,,,,,,,,,,,,,,,,,,,,,,,,,,8,001,,,2020_Sep_05_1719,reactive_intentional_encoding_looped,3.2.4,60.848441709880404,
,,,,,,,,,,,,,,,,,,,,,,,,,9,images/fan.png,images/giza_pyramids_c.jpg,images/pencilCase.png,object-scene,None,,,,,,,,,0,8,8,8,,,,,,,,,,,,,,,,,,,,,,,,,,,,,,,,,,,,,,,,,22.724708281981293,None,22.724708281981293,None,,,,,,,,,,,,,,,,,,,,,,,,,,,,,,,,,8,001,,,2020_Sep_05_1719,reactive_intentional_encoding_looped,3.2.4,60.848441709880404,
,,,,,,,,,,,,,,,,,,,,,,,,,10,images/mannequin.jpg,images/julia_roberts_c.jpg,images/newspaper_stack.png,object-face,None,,,,,,,,,0,9,9,9,,,,,,,,,,,,,,,,,,,,,,,,,,,,,,,,,,,,,,,,,23.623518088978017,None,23.623518088978017,None,,,,,,,,,,,,,,,,,,,,,,,,,,,,,,,,,8,001,,,2020_Sep_05_1719,reactive_intentional_encoding_looped,3.2.4,60.848441709880404,
,,,,,,,,,,,,,,,,,,,,,,,,,11,images/flipflopsBlue.png,images/flatiron_building_b.jpg,images/paddle.png,object-scene,None,,,,,,,,,0,10,10,10,,,,,,,,,,,,,,,,,,,,,,,,,,,,,,,,,,,,,,,,,24.640274209989002,None,24.640274209989002,None,,,,,,,,,,,,,,,,,,,,,,,,,,,,,,,,,8,001,,,2020_Sep_05_1719,reactive_intentional_encoding_looped,3.2.4,60.848441709880404,
,,,,,,,,,,,,,,,,,,,,,,,,,12,images/bib.png,images/glacier_national_park_c.jpg,images/paintcan.jpg,object-scene,None,,,,,,,,,0,11,11,11,,,,,,,,,,,,,,,,,,,,,,,,,,,,,,,,,,,,,,,,,25.640344615996582,None,25.640344615996582,None,,,,,,,,,,,,,,,,,,,,,,,,,,,,,,,,,8,001,,,2020_Sep_05_1719,reactive_intentional_encoding_looped,3.2.4,60.848441709880404,
Great job! Now we will see how well you remember which images go together.,Press space to continue!,None,None,None,None,0.0,0.3,0.0,-0.4, , , , , ,,,,,,,,,,,,,,,,,,,,,,,,,,,,,0,0,0,0,,,,,,,,,,,,,,,,,,,,,,,,,,,,,,,,,,,,,,,,,26.1908192759729,None,26.1908192759729,None,26.1908192759729,None,space,2.9233046289882623,26.224125398992328,None,,,,,,,,,,,,,,,,,,,,,,,8,001,,,2020_Sep_05_1719,reactive_intentional_encoding_looped,3.2.4,60.848441709880404,
"You will first see one image, like below. Your job is to recall the image that it was paired with when you see this image.",Press space to continue!,instruction_images/jessica_alba.jpg,None,None,None,0.0,0.3,0.0,-0.4, , , , , ,,,,,,,,,,,,,,,,,,,,,,,,,,,,,0,1,1,1,,,,,,,,,,,,,,,,,,,,,,,,,,,,,,,,,,,,,,,,,29.22429695999017,None,29.22429695999017,None,29.22429695999017,None,space,1.9750698450079653,29.273771140986355,None,,,,,,,,,,,,,,,,,,,,,,,8,001,,,2020_Sep_05_1719,reactive_intentional_encoding_looped,3.2.4,60.848441709880404,
"Here, you should recall the book.",Press space to continue!,instruction_images/jessica_alba.jpg,None,None,None,0.0,0.3,0.0,-0.4,J,K,L, , ,,,,,,,,,,,,,,,,,,,,,,,,,,,,,0,2,2,2,,,,,,,,,,,,,,,,,,,,,,,,,,,,,,,,,,,,,,,,,31.390308220987208,None,31.390308220987208,None,31.390308220987208,None,space,5.301132090011379,31.42464057597681,None,,,,,,,,,,,,,,,,,,,,,,,8,001,,,2020_Sep_05_1719,reactive_intentional_encoding_looped,3.2.4,60.848441709880404,
"Then, you will see 3 other images and your job is to select the correct image pair. Use the keys 'J', 'K', or 'L' to indicate your choice.",Press space to continue!,instruction_images/jessica_alba.jpg,instruction_images/oldBook.png,instruction_images/alpaca_fo.jpg,instruction_images/antlers.jpg,0.0,0.3,0.0,-0.4,J,K,L, , ,,,,,,,,,,,,,,,,,,,,,,,,,,,,,,,,,0,0,0,0,,,,,,,,,,,,,,,,,,,,,,,,,,,,,,,,,,,,,,,,,,,,,,,36.88973044799059,None,36.88973044799059,None,space,0.48552645702147856,37.139790175977396,None,36.88973044799059,None,36.88973044799059,None,36.88973044799059,None,36.88973044799059,None,36.88973044799059,None,36.88973044799059,None,36.88973044799059,None,8,001,,,2020_Sep_05_1719,reactive_intentional_encoding_looped,3.2.4,60.848441709880404,
"Here, you should press 'L' because the woman, Jessica Alba, was paired with the book.",Press 'L' to continue!,None,instruction_images/oldBook.png,instruction_images/alpaca_fo.jpg,instruction_images/antlers.jpg,0.0,0.3,0.0,-0.4,J,K,L, , ,,,,,,,,,,,,,,,,,,,,,,,,,,,,,,,,,0,1,1,1,,,,,,,,,,,,,,,,,,,,,,,,,,,,,,,,,,,,,,,,,,,,,,,37.79102432998479,None,37.79102432998479,None,space,0.9809103940206114,38.08939865697175,None,37.79102432998479,None,37.79102432998479,None,37.79102432998479,None,37.79102432998479,None,37.79102432998479,None,37.79102432998479,None,37.79102432998479,None,8,001,,,2020_Sep_05_1719,reactive_intentional_encoding_looped,3.2.4,60.848441709880404,
This portion is timed. Respond quickly and think of your answer as soon as you see the first image. ,Press space to continue!,None,instruction_images/oldBook.png,instruction_images/alpaca_fo.jpg,instruction_images/antlers.jpg,0.0,0.3,0.0,-0.4,J,K,L, , ,,,,,,,,,,,,,,,,,,,,,,,,,,,,,,,,,0,2,2,2,,,,,,,,,,,,,,,,,,,,,,,,,,,,,,,,,,,,,,,,,,,,,,,39.26305604499066,None,39.26305604499066,None,space,0.04276215299614705,39.562541769992094,None,39.26305604499066,None,39.26305604499066,None,39.26305604499066,None,39.26305604499066,None,39.26305604499066,None,39.26305604499066,None,39.26305604499066,None,8,001,,,2020_Sep_05_1719,reactive_intentional_encoding_looped,3.2.4,60.848441709880404,
"These keyboard options will remain on the screen under each image as a reminder throughout the task. If you don't know the answer, take a guess.",Press space to continue!,None,instruction_images/oldBook.png,instruction_images/alpaca_fo.jpg,instruction_images/antlers.jpg,0.0,0.3,0.0,-0.4,J,K,L, , ,,,,,,,,,,,,,,,,,,,,,,,,,,,,,,,,,0,3,3,3,,,,,,,,,,,,,,,,,,,,,,,,,,,,,,,,,,,,,,,,,,,,,,,39.777068683994,None,39.777068683994,None,space,0.010675372002879158,40.10657839599298,None,39.777068683994,None,39.777068683994,None,39.777068683994,None,39.777068683994,None,39.777068683994,None,39.777068683994,None,39.777068683994,None,8,001,,,2020_Sep_05_1719,reactive_intentional_encoding_looped,3.2.4,60.848441709880404,
"First, we'll do a practice. Put your right hand on the keyboard and get ready to respond! When you're ready to start, press space.",Press space to continue!,None,instruction_images/oldBook.png,instruction_images/alpaca_fo.jpg,instruction_images/antlers.jpg,0.0,0.3,0.0,-0.4, , , , , ,,,,,,,,,,,,,,,,,,,,,,,,,,,,,,,,,0,4,4,4,,,,,,,,,,,,,,,,,,,,,,,,,,,,,,,,,,,,,,,,,,,,,,,40.32281934298226,None,40.32281934298226,None,space,1.202284986997256,40.62993231299333,None,40.32281934298226,None,40.32281934298226,None,40.32281934298226,None,40.32281934298226,None,40.32281934298226,None,40.32281934298226,None,40.32281934298226,None,8,001,,,2020_Sep_05_1719,reactive_intentional_encoding_looped,3.2.4,60.848441709880404,
