instructions1,Instructions2,Image1,Image2,Image3,Image_4,position_1x,position_1y,position_2x,position_2y,J_key,K_key,L_key,yes_text,no_text,Image,image_type,category,trial_number,pair_indicator,instruction_intentional_encoding.thisRepN,instruction_intentional_encoding.thisTrialN,instruction_intentional_encoding.thisN,instruction_intentional_encoding.thisIndex,practice_trials_intentional_encoding.thisRepN,practice_trials_intentional_encoding.thisTrialN,practice_trials_intentional_encoding.thisN,practice_trials_intentional_encoding.thisIndex,trials.thisRepN,trials.thisTrialN,trials.thisN,trials.thisIndex,trials_4.thisRepN,trials_4.thisTrialN,trials_4.thisN,trials_4.thisIndex,trials_2.thisRepN,trials_2.thisTrialN,trials_2.thisN,trials_2.thisIndex,trials_5.thisRepN,trials_5.thisTrialN,trials_5.thisN,trials_5.thisIndex,trials_3.thisRepN,trials_3.thisTrialN,trials_3.thisN,trials_3.thisIndex,trials_6.thisRepN,trials_6.thisTrialN,trials_6.thisN,trials_6.thisIndex,trials_7.thisRepN,trials_7.thisTrialN,trials_7.thisN,trials_7.thisIndex,trials_8.thisRepN,trials_8.thisTrialN,trials_8.thisN,trials_8.thisIndex,trials_9.thisRepN,trials_9.thisTrialN,trials_9.thisN,trials_9.thisIndex,trials_10.thisRepN,trials_10.thisTrialN,trials_10.thisN,trials_10.thisIndex,trials_11.thisRepN,trials_11.thisTrialN,trials_11.thisN,trials_11.thisIndex,trials_12.thisRepN,trials_12.thisTrialN,trials_12.thisN,trials_12.thisIndex,trials_13.thisRepN,trials_13.thisTrialN,trials_13.thisN,trials_13.thisIndex,trials_15.thisRepN,trials_15.thisTrialN,trials_15.thisN,trials_15.thisIndex,trials_18.thisRepN,trials_18.thisTrialN,trials_18.thisN,trials_18.thisIndex,trials_17.thisRepN,trials_17.thisTrialN,trials_17.thisN,trials_17.thisIndex,trials_19.thisRepN,trials_19.thisTrialN,trials_19.thisN,trials_19.thisIndex,trials_20.thisRepN,trials_20.thisTrialN,trials_20.thisN,trials_20.thisIndex,trials_21.thisRepN,trials_21.thisTrialN,trials_21.thisN,trials_21.thisIndex,text_9.started,text_9.stopped,key_resp_3.keys,key_resp_3.rt,key_resp_3.started,key_resp_3.stopped,post_retreival_practice_intructions.started,post_retreival_practice_intructions.stopped,key_resp_4.keys,key_resp_4.rt,key_resp_4.started,key_resp_4.stopped,text_12.started,text_12.stopped,key_resp_6.keys,key_resp_6.rt,key_resp_6.started,key_resp_6.stopped,text_13.started,text_13.stopped,key_resp_7.keys,key_resp_7.rt,key_resp_7.started,key_resp_7.stopped,text_15.started,text_15.stopped,key_resp_8.keys,key_resp_8.rt,key_resp_8.started,key_resp_8.stopped,text_2.started,text_2.stopped,key_resp_14.keys,key_resp_14.rt,key_resp_14.started,key_resp_14.stopped,text_14.started,text_14.stopped,pressspace.started,pressspace.stopped,key_resp_16.keys,key_resp_16.rt,key_resp_16.started,key_resp_16.stopped,image_17.started,image_17.stopped,Jkey.started,Jkey.stopped,F_key.started,F_key.stopped,oldText.started,oldText.stopped,newtext.started,newtext.stopped,text_27.started,text_27.stopped,key_resp_18.keys,key_resp_18.rt,key_resp_18.started,key_resp_18.stopped,image_oldnew.started,image_oldnew.stopped,imageabc.started,imageabc.stopped,key_resp_17.keys,key_resp_17.rt,key_resp_17.started,key_resp_17.stopped,Jkey_2.started,Jkey_2.stopped,F_key_2.started,F_key_2.stopped,old.started,old.stopped,newtext_2.started,newtext_2.stopped,fixation_.started,fixation_.stopped,participant,sex,age,,date,expName,psychopyVersion,frameRate,
,,,,,,,,,,,,,,,,,,,,,,,,,,,,,,,,,,,,,,,,,,,,,,,,,,,,,,,,,,,,,,,,,,,,,,,,,,,,,,,,,,,,,,,,,,,,,,,,,,,,,,,,9.09422306198394,None,space,3.8211112979915924,9.563066632981645,None,,,,,,,,,,,,,,,,,,,,,,,,,,,,,,,,,,,,,,,,,,,,,,,,,,,,,,,,,,,,,,,,,,,,,,,,,8,001,,,2020_Sep_07_1729,reactive_intentional_encoding_looped,3.2.4,59.9776227092286,
,,,,,,,,,,,,,,,,,,,,,,,,,,,,,,,,,,,,,,,,,,,,,,,,,,,,,,,,,,,,,,,,,,,,,,,,,,,,,,,,,,,,,,,,,,,,,,,,,,,,,,,,,,,,,,13.444532980007352,None,space,0.07443413400324062,13.444532980007352,None,,,,,,,,,,,,,,,,,,,,,,,,,,,,,,,,,,,,,,,,,,,,,,,,,,,,,,,,,,,,,,,,,,,8,001,,,2020_Sep_07_1729,reactive_intentional_encoding_looped,3.2.4,59.9776227092286,
,,,,,,,,,,,,,,,,,,,,,,,,,,,,,,,,,,,,,,,,,,,,,,,,,,,,,,,,,,,,,,,,,,,,,,,,,,,,,,,,,,,,,,,,,,,,,,,,,,,,,,,,,,,,,,,,,,,,13.580287735996535,None,space,0.07979559799423441,13.796964259003289,None,,,,,,,,,,,,,,,,,,,,,,,,,,,,,,,,,,,,,,,,,,,,,,,,,,,,,,,,,,,,,8,001,,,2020_Sep_07_1729,reactive_intentional_encoding_looped,3.2.4,59.9776227092286,
,,,,,,,,,,,,,,,,,,,,,,,,,,,,,,,,,,,,,,,,,,,,,,,,,,,,,,,,,,,,,,,,,,,,,,,,,,,,,,,,,,,,,,,,,,,,,,,,,,,,,,,,,,,,,,,,,,,,,,,,,,13.910596400004579,None,space,0.10129558798507787,13.910596400004579,None,,,,,,,,,,,,,,,,,,,,,,,,,,,,,,,,,,,,,,,,,,,,,,,,,,,,,,,8,001,,,2020_Sep_07_1729,reactive_intentional_encoding_looped,3.2.4,59.9776227092286,
,,,,,,,,,,,,,,,,,,,,,,,,,,,,,,,,,,,,,,,,,,,,,,,,,,,,,,,,,,,,,,,,,,,,,,,,,,,,,,,,,,,,,,,,,,,,,,,,,,,,,,,,,,,,,,,,,,,,14.062868092005374,None,space,0.0929512289876584,14.279805253987433,None,,,,,,,,,,,,,,,,,,,,,,,,,,,,,,,,,,,,,,,,,,,,,,,,,,,,,,,,,,,,,8,001,,,2020_Sep_07_1729,reactive_intentional_encoding_looped,3.2.4,59.9776227092286,
,,,,,,,,,,,,,,,,,,,,,,,,,,,,,,,,,,,,,,,,,,,,,,,,,,,,,,,,,,,,,,,,,,,,,,,,,,,,,,,,,,,,,,,,,,,,,,,,,,,,,,,,,,,,,,,,,,,,,,,,,,14.41044300197973,None,space,0.10548029601341113,14.41044300197973,None,,,,,,,,,,,,,,,,,,,,,,,,,,,,,,,,,,,,,,,,,,,,,,,,,,,,,,,8,001,,,2020_Sep_07_1729,reactive_intentional_encoding_looped,3.2.4,59.9776227092286,
,,,,,,,,,,,,,,,,,,,,,,,,,,,,,,,,,,,,,,,,,,,,,,,,,,,,,,,,,,,,,,,,,,,,,,,,,,,,,,,,,,,,,,,,,,,,,,,,,,,,,,,,,,,,,,,,,,,,14.580008707998786,None,space,0.0800714580109343,14.796483782003634,None,,,,,,,,,,,,,,,,,,,,,,,,,,,,,,,,,,,,,,,,,,,,,,,,,,,,,,,,,,,,,8,001,,,2020_Sep_07_1729,reactive_intentional_encoding_looped,3.2.4,59.9776227092286,
,,,,,,,,,,,,,,,,,,,,,,,,,,,,,,,,,,,,,,,,,,,,,,,,,,,,,,,,,,,,,,,,,,,,,,,,,,,,,,,,,,,,,,,,,,,,,,,,,,,,,,,,,,,,,,,,,,,,,,,,,,14.910413086996414,None,space,0.10228854799061082,14.910413086996414,None,,,,,,,,,,,,,,,,,,,,,,,,,,,,,,,,,,,,,,,,,,,,,,,,,,,,,,,8,001,,,2020_Sep_07_1729,reactive_intentional_encoding_looped,3.2.4,59.9776227092286,
,,,,,,,,,,,,,,,,,,,,,,,,,,,,,,,,,,,,,,,,,,,,,,,,,,,,,,,,,,,,,,,,,,,,,,,,,,,,,,,,,,,,,,,,,,,,,,,,,,,,,,,,,,,,,,,,,,,,,,,,,,,,,,,,15.060309057007544,None,space,0.08952159201726317,15.060309057007544,None,,,,,,,,,,,,,,,,,,,,,,,,,,,,,,,,,,,,,,,,,,,,,,,,,8,001,,,2020_Sep_07_1729,reactive_intentional_encoding_looped,3.2.4,59.9776227092286,
,,,,,,,,,,,,,,,,,,,,,,,,,,,,,,,,,,,,,,,,,,,,,,,,,,,,,,,,,,,,,,,,,,,,,,,,,,,,,,,,,,,,,,,,,,,,,,,,,,,,,,,,,,,,,,,,,,,,,,,,,,,,,,,,,,,,,,15.210057671007235,None,space,0.1957912200014107,15.210057671007235,None,,,,,,,,,,,,,,,,,,,,,,,,,,,,,,,,,,,,,,,,,,,8,001,,,2020_Sep_07_1729,reactive_intentional_encoding_looped,3.2.4,59.9776227092286,
"You're now almost finished the task! In the last part, you will do another memory test. You will be shown an image, like below, on each trial. Your job is to indicate whether you have seen this image before. If you have seen the image before, press 'f' to indicate that it is old. If you haven't seen this image before, press 'j' to indicate the image is new.",Press space to continue!,instruction_images/oldBook.png,None,None,None,None,None,None,None,J,F,None,old,new,,,,,,,,,,,,,,,,,,,,,,,,,,,,,,,,,,,,,,,,,,,,,,,,,,,,,,,,,,,,,,,,,,,,,,,,,,,,,,0,0,0,0,,,,,,,,,,,,,,,,,,,,,,,,,,,,,,,,,,,,,,,,,,,,,15.629393087001517,None,15.629393087001517,None,space,0.003200447012204677,15.629393087001517,None,15.629393087001517,None,15.629393087001517,None,15.629393087001517,None,15.629393087001517,None,15.629393087001517,None,,,,,,,,,,,,,,,,,,,,,,,,,8,001,,,2020_Sep_07_1729,reactive_intentional_encoding_looped,3.2.4,59.9776227092286,
"Since you have seen the book before, you should select 'f' to indicate the book is old.",Press space to continue!,instruction_images/oldBook.png,None,None,None,None,None,None,None,J,F,None,old,new,,,,,,,,,,,,,,,,,,,,,,,,,,,,,,,,,,,,,,,,,,,,,,,,,,,,,,,,,,,,,,,,,,,,,,,,,,,,,,0,1,1,1,,,,,,,,,,,,,,,,,,,,,,,,,,,,,,,,,,,,,,,,,,,,,15.692723112006206,None,15.692723112006206,None,space,0.08649917601724155,15.692723112006206,None,15.692723112006206,None,15.692723112006206,None,15.692723112006206,None,15.692723112006206,None,15.692723112006206,None,,,,,,,,,,,,,,,,,,,,,,,,,8,001,,,2020_Sep_07_1729,reactive_intentional_encoding_looped,3.2.4,59.9776227092286,
This test is timed. You have a limit of 2 seconds to respond. So try to respond as quickly as possible.,Press space to continue!,instruction_images/oldBook.png,None,None,None,None,None,None,None,J,F,None,old,new,,,,,,,,,,,,,,,,,,,,,,,,,,,,,,,,,,,,,,,,,,,,,,,,,,,,,,,,,,,,,,,,,,,,,,,,,,,,,,0,2,2,2,,,,,,,,,,,,,,,,,,,,,,,,,,,,,,,,,,,,,,,,,,,,,15.826104098989163,None,15.826104098989163,None,space,0.10970769298728555,15.826104098989163,None,15.826104098989163,None,15.826104098989163,None,15.826104098989163,None,15.826104098989163,None,15.826104098989163,None,,,,,,,,,,,,,,,,,,,,,,,,,8,001,,,2020_Sep_07_1729,reactive_intentional_encoding_looped,3.2.4,59.9776227092286,
"First we will do a practice. When you’re ready to start the practice, press the space bar. ",Press space to continue!,instruction_images/oldBook.png,None,None,None,None,None,None,None,J,F,None,old,new,,,,,,,,,,,,,,,,,,,,,,,,,,,,,,,,,,,,,,,,,,,,,,,,,,,,,,,,,,,,,,,,,,,,,,,,,,,,,,0,3,3,3,,,,,,,,,,,,,,,,,,,,,,,,,,,,,,,,,,,,,,,,,,,,,15.993116183002712,None,15.993116183002712,None,space,0.08641898899804801,15.993116183002712,None,15.993116183002712,None,15.993116183002712,None,15.993116183002712,None,15.993116183002712,None,15.993116183002712,None,,,,,,,,,,,,,,,,,,,,,,,,,8,001,,,2020_Sep_07_1729,reactive_intentional_encoding_looped,3.2.4,59.9776227092286,
None,Press space to continue!,instruction_images/oldBook.png,None,None,None,None,None,None,None,J,F,None,old,new,,,,,,,,,,,,,,,,,,,,,,,,,,,,,,,,,,,,,,,,,,,,,,,,,,,,,,,,,,,,,,,,,,,,,,,,,,,,,,0,4,4,4,,,,,,,,,,,,,,,,,,,,,,,,,,,,,,,,,,,,,,,,,,,,,16.142797609994886,None,16.142797609994886,None,space,0.07280260900733992,16.142797609994886,None,16.142797609994886,None,16.142797609994886,None,16.142797609994886,None,16.142797609994886,None,16.142797609994886,None,,,,,,,,,,,,,,,,,,,,,,,,,8,001,,,2020_Sep_07_1729,reactive_intentional_encoding_looped,3.2.4,59.9776227092286,
,,,,,,,,,,,,,,,,,,,,,,,,,,,,,,,,,,,,,,,,,,,,,,,,,,,,,,,,,,,,,,,,,,,,,,,,,,,,,,,,,,,,,,,,,,,,,,,,,,,,,,,,,,,,,,,,,,,,,,,,,,,,,,,,,,,,,,,,,,,,,,,,,,,,,,,,,,,,,,16.26021746499464,None,space,0.09341323497937992,16.26021746499464,None,,,,,,,,,,,,,,,,,,,8,001,,,2020_Sep_07_1729,reactive_intentional_encoding_looped,3.2.4,59.9776227092286,
,,,,,,,,,,,,,,,images/quartz.png,A,object ,1,None,,,,,,,,,,,,,,,,,,,,,,,,,,,,,,,,,,,,,,,,,,,,,,,,,,,,,,,,,,,,,,,,,,,,,,,,,,,,,,,,,0,0,0,0,,,,,,,,,,,,,,,,,,,,,,,,,,,,,,,,,,,,,,,,,,,,,,,,,,,,,,,,,,,,,16.26021746499464,None,16.426640452002175,None,space,0.06287370200152509,16.426640452002175,None,16.426640452002175,None,16.426640452002175,None,16.426640452002175,None,16.426640452002175,None,16.52741654298734,None,8,001,,,2020_Sep_07_1729,reactive_intentional_encoding_looped,3.2.4,59.9776227092286,
,,,,,,,,,,,,,,,images/feather.png,A,object ,2,None,,,,,,,,,,,,,,,,,,,,,,,,,,,,,,,,,,,,,,,,,,,,,,,,,,,,,,,,,,,,,,,,,,,,,,,,,,,,,,,,,0,1,1,1,,,,,,,,,,,,,,,,,,,,,,,,,,,,,,,,,,,,,,,,,,,,,,,,,,,,,,,,,,,,,,,17.04295817698585,None,None,,17.04295817698585,None,17.04295817698585,None,17.04295817698585,None,17.04295817698585,None,17.04295817698585,None,19.045453967002686,None,8,001,,,2020_Sep_07_1729,reactive_intentional_encoding_looped,3.2.4,59.9776227092286,
,,,,,,,,,,,,,,,images/mannequin.jpg,A,object ,3,None,,,,,,,,,,,,,,,,,,,,,,,,,,,,,,,,,,,,,,,,,,,,,,,,,,,,,,,,,,,,,,,,,,,,,,,,,,,,,,,,,0,2,2,2,,,,,,,,,,,,,,,,,,,,,,,,,,,,,,,,,,,,,,,,,,,,,,,,,,,,,,,,,,,,,,,19.559248723002383,None,None,,19.559248723002383,None,19.559248723002383,None,19.559248723002383,None,19.559248723002383,None,19.559248723002383,None,21.562662865006132,None,8,001,,,2020_Sep_07_1729,reactive_intentional_encoding_looped,3.2.4,59.9776227092286,
,,,,,,,,,,,,,,,images/westminster_bbbey_b.jpg,new,scene,4,None,,,,,,,,,,,,,,,,,,,,,,,,,,,,,,,,,,,,,,,,,,,,,,,,,,,,,,,,,,,,,,,,,,,,,,,,,,,,,,,,,0,3,3,3,,,,,,,,,,,,,,,,,,,,,,,,,,,,,,,,,,,,,,,,,,,,,,,,,,,,,,,,,,,,,,,22.075604582991218,None,None,,22.075604582991218,None,22.075604582991218,None,22.075604582991218,None,22.075604582991218,None,22.075604582991218,None,24.078925987996627,None,8,001,,,2020_Sep_07_1729,reactive_intentional_encoding_looped,3.2.4,59.9776227092286,
,,,,,,,,,,,,,,,images/outhouse.png,C,object ,5,direct,,,,,,,,,,,,,,,,,,,,,,,,,,,,,,,,,,,,,,,,,,,,,,,,,,,,,,,,,,,,,,,,,,,,,,,,,,,,,,,,,0,4,4,4,,,,,,,,,,,,,,,,,,,,,,,,,,,,,,,,,,,,,,,,,,,,,,,,,,,,,,,,,,,,,,,24.59228015798726,None,None,,24.59228015798726,None,24.59228015798726,None,24.59228015798726,None,24.59228015798726,None,24.59228015798726,None,26.595652364980197,None,8,001,,,2020_Sep_07_1729,reactive_intentional_encoding_looped,3.2.4,59.9776227092286,
,,,,,,,,,,,,,,,images/neil_patrick_harris.jpg,B,face,6,direct,,,,,,,,,,,,,,,,,,,,,,,,,,,,,,,,,,,,,,,,,,,,,,,,,,,,,,,,,,,,,,,,,,,,,,,,,,,,,,,,,0,5,5,5,,,,,,,,,,,,,,,,,,,,,,,,,,,,,,,,,,,,,,,,,,,,,,,,,,,,,,,,,,,,,,,27.10951015300816,None,None,,27.10951015300816,None,27.10951015300816,None,27.10951015300816,None,27.10951015300816,None,27.10951015300816,None,29.112271952995798,None,8,001,,,2020_Sep_07_1729,reactive_intentional_encoding_looped,3.2.4,59.9776227092286,
,,,,,,,,,,,,,,,images/martin_scorsese_a.jpg,new,face,7,None,,,,,,,,,,,,,,,,,,,,,,,,,,,,,,,,,,,,,,,,,,,,,,,,,,,,,,,,,,,,,,,,,,,,,,,,,,,,,,,,,0,6,6,6,,,,,,,,,,,,,,,,,,,,,,,,,,,,,,,,,,,,,,,,,,,,,,,,,,,,,,,,,,,,,,,29.624598642985802,None,None,,29.624598642985802,None,29.624598642985802,None,29.624598642985802,None,29.624598642985802,None,29.624598642985802,None,31.62527851300547,None,8,001,,,2020_Sep_07_1729,reactive_intentional_encoding_looped,3.2.4,59.9776227092286,
,,,,,,,,,,,,,,,images/microwave.png,C,object ,8,direct,,,,,,,,,,,,,,,,,,,,,,,,,,,,,,,,,,,,,,,,,,,,,,,,,,,,,,,,,,,,,,,,,,,,,,,,,,,,,,,,,0,7,7,7,,,,,,,,,,,,,,,,,,,,,,,,,,,,,,,,,,,,,,,,,,,,,,,,,,,,,,,,,,,,,,,32.14209214699804,None,None,,32.14209214699804,None,32.14209214699804,None,32.14209214699804,None,32.14209214699804,None,32.14209214699804,None,34.141653772006975,None,8,001,,,2020_Sep_07_1729,reactive_intentional_encoding_looped,3.2.4,59.9776227092286,
,,,,,,,,,,,,,,,images/empire_state_building_a.jpg,B,scene,9,direct,,,,,,,,,,,,,,,,,,,,,,,,,,,,,,,,,,,,,,,,,,,,,,,,,,,,,,,,,,,,,,,,,,,,,,,,,,,,,,,,,0,8,8,8,,,,,,,,,,,,,,,,,,,,,,,,,,,,,,,,,,,,,,,,,,,,,,,,,,,,,,,,,,,,,,,34.64736286798143,None,None,,34.64736286798143,None,34.64736286798143,None,34.64736286798143,None,34.64736286798143,None,34.64736286798143,None,36.66298890300095,None,8,001,,,2020_Sep_07_1729,reactive_intentional_encoding_looped,3.2.4,59.9776227092286,
,,,,,,,,,,,,,,,images/pylonTraffic.jpg,new,object ,10,None,,,,,,,,,,,,,,,,,,,,,,,,,,,,,,,,,,,,,,,,,,,,,,,,,,,,,,,,,,,,,,,,,,,,,,,,,,,,,,,,,0,9,9,9,,,,,,,,,,,,,,,,,,,,,,,,,,,,,,,,,,,,,,,,,,,,,,,,,,,,,,,,,,,,,,,37.174535272002686,None,None,,37.174535272002686,None,37.174535272002686,None,37.174535272002686,None,37.174535272002686,None,37.174535272002686,None,39.1734916800051,None,8,001,,,2020_Sep_07_1729,reactive_intentional_encoding_looped,3.2.4,59.9776227092286,
,,,,,,,,,,,,,,,images/qtip.png,new,object ,11,None,,,,,,,,,,,,,,,,,,,,,,,,,,,,,,,,,,,,,,,,,,,,,,,,,,,,,,,,,,,,,,,,,,,,,,,,,,,,,,,,,0,10,10,10,,,,,,,,,,,,,,,,,,,,,,,,,,,,,,,,,,,,,,,,,,,,,,,,,,,,,,,,,,,,,,,39.67923907598015,None,None,,39.67923907598015,None,39.67923907598015,None,39.67923907598015,None,39.67923907598015,None,39.67923907598015,None,41.69096673998865,None,8,001,,,2020_Sep_07_1729,reactive_intentional_encoding_looped,3.2.4,59.9776227092286,
,,,,,,,,,,,,,,,images/washington_monument_a.jpg,new,scene,12,None,,,,,,,,,,,,,,,,,,,,,,,,,,,,,,,,,,,,,,,,,,,,,,,,,,,,,,,,,,,,,,,,,,,,,,,,,,,,,,,,,0,11,11,11,,,,,,,,,,,,,,,,,,,,,,,,,,,,,,,,,,,,,,,,,,,,,,,,,,,,,,,,,,,,,,,42.20745254098438,None,None,,42.20745254098438,None,42.20745254098438,None,42.20745254098438,None,42.20745254098438,None,42.20745254098438,None,44.206875962001504,None,8,001,,,2020_Sep_07_1729,reactive_intentional_encoding_looped,3.2.4,59.9776227092286,
,,,,,,,,,,,,,,,images/puzzlepiece.png,A,object ,13,None,,,,,,,,,,,,,,,,,,,,,,,,,,,,,,,,,,,,,,,,,,,,,,,,,,,,,,,,,,,,,,,,,,,,,,,,,,,,,,,,,0,12,12,12,,,,,,,,,,,,,,,,,,,,,,,,,,,,,,,,,,,,,,,,,,,,,,,,,,,,,,,,,,,,,,,44.71323940198636,None,None,,44.71323940198636,None,44.71323940198636,None,44.71323940198636,None,44.71323940198636,None,44.71323940198636,None,46.71284964500228,None,8,001,,,2020_Sep_07_1729,reactive_intentional_encoding_looped,3.2.4,59.9776227092286,
,,,,,,,,,,,,,,,images/newspaper_stack.png,C,object ,14,direct,,,,,,,,,,,,,,,,,,,,,,,,,,,,,,,,,,,,,,,,,,,,,,,,,,,,,,,,,,,,,,,,,,,,,,,,,,,,,,,,,0,13,13,13,,,,,,,,,,,,,,,,,,,,,,,,,,,,,,,,,,,,,,,,,,,,,,,,,,,,,,,,,,,,,,,47.22410263799247,None,None,,47.22410263799247,None,47.22410263799247,None,47.22410263799247,None,47.22410263799247,None,47.22410263799247,None,49.22303809598088,None,8,001,,,2020_Sep_07_1729,reactive_intentional_encoding_looped,3.2.4,59.9776227092286,
,,,,,,,,,,,,,,,images/james_franco_c.jpg,B,face,15,direct,,,,,,,,,,,,,,,,,,,,,,,,,,,,,,,,,,,,,,,,,,,,,,,,,,,,,,,,,,,,,,,,,,,,,,,,,,,,,,,,,0,14,14,14,,,,,,,,,,,,,,,,,,,,,,,,,,,,,,,,,,,,,,,,,,,,,,,,,,,,,,,,,,,,,,,49.73373849998461,None,j,1.7679850770218764,49.73373849998461,None,49.73373849998461,None,49.73373849998461,None,49.73373849998461,None,49.73373849998461,None,51.52973536000354,None,8,001,,,2020_Sep_07_1729,reactive_intentional_encoding_looped,3.2.4,59.9776227092286,
,,,,,,,,,,,,,,,images/donutFloaty.jpg,A,object ,16,None,,,,,,,,,,,,,,,,,,,,,,,,,,,,,,,,,,,,,,,,,,,,,,,,,,,,,,,,,,,,,,,,,,,,,,,,,,,,,,,,,0,15,15,15,,,,,,,,,,,,,,,,,,,,,,,,,,,,,,,,,,,,,,,,,,,,,,,,,,,,,,,,,,,,,,,52.05710036098026,None,j,1.3961312700121198,52.05710036098026,None,52.05710036098026,None,52.05710036098026,None,52.05710036098026,None,52.05710036098026,None,53.472628586983774,None,8,001,,,2020_Sep_07_1729,reactive_intentional_encoding_looped,3.2.4,59.9776227092286,
,,,,,,,,,,,,,,,images/lotus_temple_a.jpg,new,scene,17,None,,,,,,,,,,,,,,,,,,,,,,,,,,,,,,,,,,,,,,,,,,,,,,,,,,,,,,,,,,,,,,,,,,,,,,,,,,,,,,,,,0,16,16,16,,,,,,,,,,,,,,,,,,,,,,,,,,,,,,,,,,,,,,,,,,,,,,,,,,,,,,,,,,,,,,,53.983141306991456,None,j,0.39707078898209147,53.983141306991456,None,53.983141306991456,None,53.983141306991456,None,53.983141306991456,None,53.983141306991456,None,54.412734612997156,None,8,001,,,2020_Sep_07_1729,reactive_intentional_encoding_looped,3.2.4,59.9776227092286,
,,,,,,,,,,,,,,,images/antlerheadband.png,new,object ,18,None,,,,,,,,,,,,,,,,,,,,,,,,,,,,,,,,,,,,,,,,,,,,,,,,,,,,,,,,,,,,,,,,,,,,,,,,,,,,,,,,,0,17,17,17,,,,,,,,,,,,,,,,,,,,,,,,,,,,,,,,,,,,,,,,,,,,,,,,,,,,,,,,,,,,,,,54.923124275985174,None,j,0.3621432470099535,54.923124275985174,None,54.923124275985174,None,54.923124275985174,None,54.923124275985174,None,54.923124275985174,None,55.30558360100258,None,8,001,,,2020_Sep_07_1729,reactive_intentional_encoding_looped,3.2.4,59.9776227092286,
,,,,,,,,,,,,,,,images/champagne.jpg,A,object ,19,None,,,,,,,,,,,,,,,,,,,,,,,,,,,,,,,,,,,,,,,,,,,,,,,,,,,,,,,,,,,,,,,,,,,,,,,,,,,,,,,,,0,18,18,18,,,,,,,,,,,,,,,,,,,,,,,,,,,,,,,,,,,,,,,,,,,,,,,,,,,,,,,,,,,,,,,55.81554857699666,None,j,0.13367379998089746,55.81554857699666,None,55.81554857699666,None,55.81554857699666,None,55.81554857699666,None,55.81554857699666,None,55.979959657008294,None,8,001,,,2020_Sep_07_1729,reactive_intentional_encoding_looped,3.2.4,59.9776227092286,
,,,,,,,,,,,,,,,images/bag_gift.png,A,object ,20,None,,,,,,,,,,,,,,,,,,,,,,,,,,,,,,,,,,,,,,,,,,,,,,,,,,,,,,,,,,,,,,,,,,,,,,,,,,,,,,,,,0,19,19,19,,,,,,,,,,,,,,,,,,,,,,,,,,,,,,,,,,,,,,,,,,,,,,,,,,,,,,,,,,,,,,,56.49163337200298,None,j,0.10287266699015163,56.49163337200298,None,56.49163337200298,None,56.49163337200298,None,56.49163337200298,None,56.49163337200298,None,56.62299794200226,None,8,001,,,2020_Sep_07_1729,reactive_intentional_encoding_looped,3.2.4,59.9776227092286,
,,,,,,,,,,,,,,,images/trafalgar_square_a.jpg,new,scene,21,None,,,,,,,,,,,,,,,,,,,,,,,,,,,,,,,,,,,,,,,,,,,,,,,,,,,,,,,,,,,,,,,,,,,,,,,,,,,,,,,,,0,20,20,20,,,,,,,,,,,,,,,,,,,,,,,,,,,,,,,,,,,,,,,,,,,,,,,,,,,,,,,,,,,,,,,57.12983891699696,None,j,0.1204960590112023,57.12983891699696,None,57.12983891699696,None,57.12983891699696,None,57.12983891699696,None,57.12983891699696,None,57.27956306000124,None,8,001,,,2020_Sep_07_1729,reactive_intentional_encoding_looped,3.2.4,59.9776227092286,
,,,,,,,,,,,,,,,images/kirsten_dunst_a.jpg,new,face,22,None,,,,,,,,,,,,,,,,,,,,,,,,,,,,,,,,,,,,,,,,,,,,,,,,,,,,,,,,,,,,,,,,,,,,,,,,,,,,,,,,,0,21,21,21,,,,,,,,,,,,,,,,,,,,,,,,,,,,,,,,,,,,,,,,,,,,,,,,,,,,,,,,,,,,,,,57.788792770996224,None,j,0.11650214600376785,57.788792770996224,None,57.788792770996224,None,57.788792770996224,None,57.788792770996224,None,57.788792770996224,None,57.92251751298318,None,8,001,,,2020_Sep_07_1729,reactive_intentional_encoding_looped,3.2.4,59.9776227092286,
,,,,,,,,,,,,,,,images/pajamas.png,C,object ,23,direct,,,,,,,,,,,,,,,,,,,,,,,,,,,,,,,,,,,,,,,,,,,,,,,,,,,,,,,,,,,,,,,,,,,,,,,,,,,,,,,,,0,22,22,22,,,,,,,,,,,,,,,,,,,,,,,,,,,,,,,,,,,,,,,,,,,,,,,,,,,,,,,,,,,,,,,58.439826802990865,None,j,0.08241214300505817,58.439826802990865,None,58.439826802990865,None,58.439826802990865,None,58.439826802990865,None,58.439826802990865,None,58.54000141099095,None,8,001,,,2020_Sep_07_1729,reactive_intentional_encoding_looped,3.2.4,59.9776227092286,
,,,,,,,,,,,,,,,images/machu_picchu_c.jpg,B,scene,24,direct,,,,,,,,,,,,,,,,,,,,,,,,,,,,,,,,,,,,,,,,,,,,,,,,,,,,,,,,,,,,,,,,,,,,,,,,,,,,,,,,,0,23,23,23,,,,,,,,,,,,,,,,,,,,,,,,,,,,,,,,,,,,,,,,,,,,,,,,,,,,,,,,,,,,,,,59.072388896980556,None,j,0.06366833500214852,59.072388896980556,None,59.072388896980556,None,59.072388896980556,None,59.072388896980556,None,59.072388896980556,None,59.15524248100701,None,8,001,,,2020_Sep_07_1729,reactive_intentional_encoding_looped,3.2.4,59.9776227092286,
,,,,,,,,,,,,,,,images/mop.png,C,object ,25,indirect,,,,,,,,,,,,,,,,,,,,,,,,,,,,,,,,,,,,,,,,,,,,,,,,,,,,,,,,,,,,,,,,,,,,,,,,,,,,,,,,,0,24,24,24,,,,,,,,,,,,,,,,,,,,,,,,,,,,,,,,,,,,,,,,,,,,,,,,,,,,,,,,,,,,,,,59.67158859799383,None,j,0.05942673500976525,59.67158859799383,None,59.67158859799383,None,59.67158859799383,None,59.67158859799383,None,59.67158859799383,None,59.75541387300473,None,8,001,,,2020_Sep_07_1729,reactive_intentional_encoding_looped,3.2.4,59.9776227092286,
,,,,,,,,,,,,,,,images/golden_gate_bridge_b.jpg,B,scene,26,indirect,,,,,,,,,,,,,,,,,,,,,,,,,,,,,,,,,,,,,,,,,,,,,,,,,,,,,,,,,,,,,,,,,,,,,,,,,,,,,,,,,0,25,25,25,,,,,,,,,,,,,,,,,,,,,,,,,,,,,,,,,,,,,,,,,,,,,,,,,,,,,,,,,,,,,,,60.26278084999649,None,j,0.08017973898677155,60.26278084999649,None,60.26278084999649,None,60.26278084999649,None,60.26278084999649,None,60.26278084999649,None,60.362703450984554,None,8,001,,,2020_Sep_07_1729,reactive_intentional_encoding_looped,3.2.4,59.9776227092286,
,,,,,,,,,,,,,,,images/ozzy_osbourne_a.jpg,new,face,27,None,,,,,,,,,,,,,,,,,,,,,,,,,,,,,,,,,,,,,,,,,,,,,,,,,,,,,,,,,,,,,,,,,,,,,,,,,,,,,,,,,0,26,26,26,,,,,,,,,,,,,,,,,,,,,,,,,,,,,,,,,,,,,,,,,,,,,,,,,,,,,,,,,,,,,,,60.87249751799391,None,j,0.06750057599856518,60.87249751799391,None,60.87249751799391,None,60.87249751799391,None,60.87249751799391,None,60.87249751799391,None,60.97210069900029,None,8,001,,,2020_Sep_07_1729,reactive_intentional_encoding_looped,3.2.4,59.9776227092286,
,,,,,,,,,,,,,,,images/rollerblade.png,new,object ,28,None,,,,,,,,,,,,,,,,,,,,,,,,,,,,,,,,,,,,,,,,,,,,,,,,,,,,,,,,,,,,,,,,,,,,,,,,,,,,,,,,,0,27,27,27,,,,,,,,,,,,,,,,,,,,,,,,,,,,,,,,,,,,,,,,,,,,,,,,,,,,,,,,,,,,,,,61.48929138400126,None,j,0.055060985003365204,61.48929138400126,None,61.48929138400126,None,61.48929138400126,None,61.48929138400126,None,61.48929138400126,None,61.57197360499413,None,8,001,,,2020_Sep_07_1729,reactive_intentional_encoding_looped,3.2.4,59.9776227092286,
,,,,,,,,,,,,,,,images/motorcycle.png,C,object ,29,indirect,,,,,,,,,,,,,,,,,,,,,,,,,,,,,,,,,,,,,,,,,,,,,,,,,,,,,,,,,,,,,,,,,,,,,,,,,,,,,,,,,0,28,28,28,,,,,,,,,,,,,,,,,,,,,,,,,,,,,,,,,,,,,,,,,,,,,,,,,,,,,,,,,,,,,,,62.08910840199678,None,j,0.07699411999783479,62.08910840199678,None,62.08910840199678,None,62.08910840199678,None,62.08910840199678,None,62.08910840199678,None,62.18904902198119,None,8,001,,,2020_Sep_07_1729,reactive_intentional_encoding_looped,3.2.4,59.9776227092286,
,,,,,,,,,,,,,,,images/serengeti_c.jpg,B,scene,30,indirect,,,,,,,,,,,,,,,,,,,,,,,,,,,,,,,,,,,,,,,,,,,,,,,,,,,,,,,,,,,,,,,,,,,,,,,,,,,,,,,,,0,29,29,29,,,,,,,,,,,,,,,,,,,,,,,,,,,,,,,,,,,,,,,,,,,,,,,,,,,,,,,,,,,,,,,62.7058124729956,None,j,0.039379299007123336,62.7058124729956,None,62.7058124729956,None,62.7058124729956,None,62.7058124729956,None,62.7058124729956,None,62.771744776982814,None,8,001,,,2020_Sep_07_1729,reactive_intentional_encoding_looped,3.2.4,59.9776227092286,
,,,,,,,,,,,,,,,images/chest_toys.png,A,object ,31,None,,,,,,,,,,,,,,,,,,,,,,,,,,,,,,,,,,,,,,,,,,,,,,,,,,,,,,,,,,,,,,,,,,,,,,,,,,,,,,,,,0,30,30,30,,,,,,,,,,,,,,,,,,,,,,,,,,,,,,,,,,,,,,,,,,,,,,,,,,,,,,,,,,,,,,,63.2809363649867,None,j,0.0810027809930034,63.2809363649867,None,63.2809363649867,None,63.2809363649867,None,63.2809363649867,None,63.2809363649867,None,63.37963099699118,None,8,001,,,2020_Sep_07_1729,reactive_intentional_encoding_looped,3.2.4,59.9776227092286,
,,,,,,,,,,,,,,,images/razor.png,new,object ,32,None,,,,,,,,,,,,,,,,,,,,,,,,,,,,,,,,,,,,,,,,,,,,,,,,,,,,,,,,,,,,,,,,,,,,,,,,,,,,,,,,,0,31,31,31,,,,,,,,,,,,,,,,,,,,,,,,,,,,,,,,,,,,,,,,,,,,,,,,,,,,,,,,,,,,,,,63.88769830900128,None,j,0.06818206299794838,63.88769830900128,None,63.88769830900128,None,63.88769830900128,None,63.88769830900128,None,63.88769830900128,None,63.98883616999956,None,8,001,,,2020_Sep_07_1729,reactive_intentional_encoding_looped,3.2.4,59.9776227092286,
,,,,,,,,,,,,,,,images/st_basils_a.jpg,new,scene,33,None,,,,,,,,,,,,,,,,,,,,,,,,,,,,,,,,,,,,,,,,,,,,,,,,,,,,,,,,,,,,,,,,,,,,,,,,,,,,,,,,,0,32,32,32,,,,,,,,,,,,,,,,,,,,,,,,,,,,,,,,,,,,,,,,,,,,,,,,,,,,,,,,,,,,,,,64.52085124500445,None,j,0.0030012200004421175,64.52085124500445,None,64.52085124500445,None,64.52085124500445,None,64.52085124500445,None,64.52085124500445,None,64.55543527999544,None,8,001,,,2020_Sep_07_1729,reactive_intentional_encoding_looped,3.2.4,59.9776227092286,
,,,,,,,,,,,,,,,images/balloon.jpg,A,object ,34,None,,,,,,,,,,,,,,,,,,,,,,,,,,,,,,,,,,,,,,,,,,,,,,,,,,,,,,,,,,,,,,,,,,,,,,,,,,,,,,,,,0,33,33,33,,,,,,,,,,,,,,,,,,,,,,,,,,,,,,,,,,,,,,,,,,,,,,,,,,,,,,,,,,,,,,,65.06162974899053,None,j,0.03524817401194014,65.06162974899053,None,65.06162974899053,None,65.06162974899053,None,65.06162974899053,None,65.06162974899053,None,65.12952345999656,None,8,001,,,2020_Sep_07_1729,reactive_intentional_encoding_looped,3.2.4,59.9776227092286,
,,,,,,,,,,,,,,,images/pentagon_a.jpg,new,scene,35,None,,,,,,,,,,,,,,,,,,,,,,,,,,,,,,,,,,,,,,,,,,,,,,,,,,,,,,,,,,,,,,,,,,,,,,,,,,,,,,,,,0,34,34,34,,,,,,,,,,,,,,,,,,,,,,,,,,,,,,,,,,,,,,,,,,,,,,,,,,,,,,,,,,,,,,,65.64224603099865,None,j,0.04522283302503638,65.64224603099865,None,65.64224603099865,None,65.64224603099865,None,65.64224603099865,None,65.64224603099865,None,65.70447181499912,None,8,001,,,2020_Sep_07_1729,reactive_intentional_encoding_looped,3.2.4,59.9776227092286,
,,,,,,,,,,,,,,,images/puppettheatre.png,new,object ,36,None,,,,,,,,,,,,,,,,,,,,,,,,,,,,,,,,,,,,,,,,,,,,,,,,,,,,,,,,,,,,,,,,,,,,,,,,,,,,,,,,,0,35,35,35,,,,,,,,,,,,,,,,,,,,,,,,,,,,,,,,,,,,,,,,,,,,,,,,,,,,,,,,,,,,,,,66.22124513800372,None,j,0.08151566100423224,66.22124513800372,None,66.22124513800372,None,66.22124513800372,None,66.22124513800372,None,66.22124513800372,None,66.32249444597983,None,8,001,,,2020_Sep_07_1729,reactive_intentional_encoding_looped,3.2.4,59.9776227092286,
,,,,,,,,,,,,,,,images/glasses_sun.png,A,object ,37,None,,,,,,,,,,,,,,,,,,,,,,,,,,,,,,,,,,,,,,,,,,,,,,,,,,,,,,,,,,,,,,,,,,,,,,,,,,,,,,,,,0,36,36,36,,,,,,,,,,,,,,,,,,,,,,,,,,,,,,,,,,,,,,,,,,,,,,,,,,,,,,,,,,,,,,,66.82957442800398,None,j,0.04628772099385969,66.82957442800398,None,66.82957442800398,None,66.82957442800398,None,66.82957442800398,None,66.82957442800398,None,66.89627426900552,None,8,001,,,2020_Sep_07_1729,reactive_intentional_encoding_looped,3.2.4,59.9776227092286,
,,,,,,,,,,,,,,,images/meg_ryan_b.jpg,new,face,38,None,,,,,,,,,,,,,,,,,,,,,,,,,,,,,,,,,,,,,,,,,,,,,,,,,,,,,,,,,,,,,,,,,,,,,,,,,,,,,,,,,0,37,37,37,,,,,,,,,,,,,,,,,,,,,,,,,,,,,,,,,,,,,,,,,,,,,,,,,,,,,,,,,,,,,,,67.40755520400126,None,j,0.052485401974990964,67.40755520400126,None,67.40755520400126,None,67.40755520400126,None,67.40755520400126,None,67.40755520400126,None,67.48801316999015,None,8,001,,,2020_Sep_07_1729,reactive_intentional_encoding_looped,3.2.4,59.9776227092286,
,,,,,,,,,,,,,,,images/origamiPaper.png,C,object ,39,direct,,,,,,,,,,,,,,,,,,,,,,,,,,,,,,,,,,,,,,,,,,,,,,,,,,,,,,,,,,,,,,,,,,,,,,,,,,,,,,,,,0,38,38,38,,,,,,,,,,,,,,,,,,,,,,,,,,,,,,,,,,,,,,,,,,,,,,,,,,,,,,,,,,,,,,,68.00451310598874,None,j,0.025303781003458425,68.00451310598874,None,68.00451310598874,None,68.00451310598874,None,68.00451310598874,None,68.00451310598874,None,68.05425610399107,None,8,001,,,2020_Sep_07_1729,reactive_intentional_encoding_looped,3.2.4,59.9776227092286,
,,,,,,,,,,,,,,,images/stonehenge_b.jpg,B,scene,40,direct,,,,,,,,,,,,,,,,,,,,,,,,,,,,,,,,,,,,,,,,,,,,,,,,,,,,,,,,,,,,,,,,,,,,,,,,,,,,,,,,,0,39,39,39,,,,,,,,,,,,,,,,,,,,,,,,,,,,,,,,,,,,,,,,,,,,,,,,,,,,,,,,,,,,,,,68.5635879499896,None,j,0.04120300701470114,68.5635879499896,None,68.5635879499896,None,68.5635879499896,None,68.5635879499896,None,68.5635879499896,None,68.62902406000649,None,8,001,,,2020_Sep_07_1729,reactive_intentional_encoding_looped,3.2.4,59.9776227092286,
,,,,,,,,,,,,,,,images/diving_board.jpg,A,object ,41,None,,,,,,,,,,,,,,,,,,,,,,,,,,,,,,,,,,,,,,,,,,,,,,,,,,,,,,,,,,,,,,,,,,,,,,,,,,,,,,,,,0,40,40,40,,,,,,,,,,,,,,,,,,,,,,,,,,,,,,,,,,,,,,,,,,,,,,,,,,,,,,,,,,,,,,,69.13755771899014,None,j,0.03611614601686597,69.13755771899014,None,69.13755771899014,None,69.13755771899014,None,69.13755771899014,None,69.13755771899014,None,69.20462614900316,None,8,001,,,2020_Sep_07_1729,reactive_intentional_encoding_looped,3.2.4,59.9776227092286,
,,,,,,,,,,,,,,,images/oven.png,C,object ,42,indirect,,,,,,,,,,,,,,,,,,,,,,,,,,,,,,,,,,,,,,,,,,,,,,,,,,,,,,,,,,,,,,,,,,,,,,,,,,,,,,,,,0,41,41,41,,,,,,,,,,,,,,,,,,,,,,,,,,,,,,,,,,,,,,,,,,,,,,,,,,,,,,,,,,,,,,,69.72602026100503,None,j,0.03176832798635587,69.72602026100503,None,69.72602026100503,None,69.72602026100503,None,69.72602026100503,None,69.72602026100503,None,69.78799186699325,None,8,001,,,2020_Sep_07_1729,reactive_intentional_encoding_looped,3.2.4,59.9776227092286,
,,,,,,,,,,,,,,,images/emma_stone.jpg,B,face,43,indirect,,,,,,,,,,,,,,,,,,,,,,,,,,,,,,,,,,,,,,,,,,,,,,,,,,,,,,,,,,,,,,,,,,,,,,,,,,,,,,,,,0,42,42,42,,,,,,,,,,,,,,,,,,,,,,,,,,,,,,,,,,,,,,,,,,,,,,,,,,,,,,,,,,,,,,,70.3064465939824,None,j,0.05123690201435238,70.3064465939824,None,70.3064465939824,None,70.3064465939824,None,70.3064465939824,None,70.3064465939824,None,70.38839932100382,None,8,001,,,2020_Sep_07_1729,reactive_intentional_encoding_looped,3.2.4,59.9776227092286,
,,,,,,,,,,,,,,,images/mel_gibson_c.jpg,new,face,44,None,,,,,,,,,,,,,,,,,,,,,,,,,,,,,,,,,,,,,,,,,,,,,,,,,,,,,,,,,,,,,,,,,,,,,,,,,,,,,,,,,0,43,43,43,,,,,,,,,,,,,,,,,,,,,,,,,,,,,,,,,,,,,,,,,,,,,,,,,,,,,,,,,,,,,,,70.90891724199173,None,j,0.048916852014372125,70.90891724199173,None,70.90891724199173,None,70.90891724199173,None,70.90891724199173,None,70.90891724199173,None,70.98709777399199,None,8,001,,,2020_Sep_07_1729,reactive_intentional_encoding_looped,3.2.4,59.9776227092286,
,,,,,,,,,,,,,,,images/white_house_a.jpg,new,scene,45,None,,,,,,,,,,,,,,,,,,,,,,,,,,,,,,,,,,,,,,,,,,,,,,,,,,,,,,,,,,,,,,,,,,,,,,,,,,,,,,,,,0,44,44,44,,,,,,,,,,,,,,,,,,,,,,,,,,,,,,,,,,,,,,,,,,,,,,,,,,,,,,,,,,,,,,,71.50697578999097,None,j,0.006037376006133854,71.50697578999097,None,71.50697578999097,None,71.50697578999097,None,71.50697578999097,None,71.50697578999097,None,71.53784548398107,None,8,001,,,2020_Sep_07_1729,reactive_intentional_encoding_looped,3.2.4,59.9776227092286,
,,,,,,,,,,,,,,,images/castle_sand.png,A,object ,46,None,,,,,,,,,,,,,,,,,,,,,,,,,,,,,,,,,,,,,,,,,,,,,,,,,,,,,,,,,,,,,,,,,,,,,,,,,,,,,,,,,0,45,45,45,,,,,,,,,,,,,,,,,,,,,,,,,,,,,,,,,,,,,,,,,,,,,,,,,,,,,,,,,,,,,,,72.05483176000416,None,j,0.027808699989691377,72.05483176000416,None,72.05483176000416,None,72.05483176000416,None,72.05483176000416,None,72.05483176000416,None,72.10452063698904,None,8,001,,,2020_Sep_07_1729,reactive_intentional_encoding_looped,3.2.4,59.9776227092286,
,,,,,,,,,,,,,,,images/pants.png,C,object ,47,direct,,,,,,,,,,,,,,,,,,,,,,,,,,,,,,,,,,,,,,,,,,,,,,,,,,,,,,,,,,,,,,,,,,,,,,,,,,,,,,,,,0,46,46,46,,,,,,,,,,,,,,,,,,,,,,,,,,,,,,,,,,,,,,,,,,,,,,,,,,,,,,,,,,,,,,,72.62025213200832,None,j,0.020378123997943476,72.62025213200832,None,72.62025213200832,None,72.62025213200832,None,72.62025213200832,None,72.62025213200832,None,72.67102982799406,None,8,001,,,2020_Sep_07_1729,reactive_intentional_encoding_looped,3.2.4,59.9776227092286,
,,,,,,,,,,,,,,,images/julia_roberts_c.jpg,B,face,48,direct,,,,,,,,,,,,,,,,,,,,,,,,,,,,,,,,,,,,,,,,,,,,,,,,,,,,,,,,,,,,,,,,,,,,,,,,,,,,,,,,,0,47,47,47,,,,,,,,,,,,,,,,,,,,,,,,,,,,,,,,,,,,,,,,,,,,,,,,,,,,,,,,,,,,,,,73.17861757098581,None,j,0.05824792297789827,73.17861757098581,None,73.17861757098581,None,73.17861757098581,None,73.17861757098581,None,73.17861757098581,None,73.26249816600466,None,8,001,,,2020_Sep_07_1729,reactive_intentional_encoding_looped,3.2.4,59.9776227092286,
,,,,,,,,,,,,,,,images/flipflopsBlue.png,A,object ,49,None,,,,,,,,,,,,,,,,,,,,,,,,,,,,,,,,,,,,,,,,,,,,,,,,,,,,,,,,,,,,,,,,,,,,,,,,,,,,,,,,,0,48,48,48,,,,,,,,,,,,,,,,,,,,,,,,,,,,,,,,,,,,,,,,,,,,,,,,,,,,,,,,,,,,,,,73.77837485598866,None,j,0.06217748299241066,73.77837485598866,None,73.77837485598866,None,73.77837485598866,None,73.77837485598866,None,73.77837485598866,None,73.8626517149969,None,8,001,,,2020_Sep_07_1729,reactive_intentional_encoding_looped,3.2.4,59.9776227092286,
,,,,,,,,,,,,,,,images/peppermill.png,C,object ,50,indirect,,,,,,,,,,,,,,,,,,,,,,,,,,,,,,,,,,,,,,,,,,,,,,,,,,,,,,,,,,,,,,,,,,,,,,,,,,,,,,,,,0,49,49,49,,,,,,,,,,,,,,,,,,,,,,,,,,,,,,,,,,,,,,,,,,,,,,,,,,,,,,,,,,,,,,,74.36974706500769,None,j,0.062890363013139,74.36974706500769,None,74.36974706500769,None,74.36974706500769,None,74.36974706500769,None,74.36974706500769,None,74.45421650100616,None,8,001,,,2020_Sep_07_1729,reactive_intentional_encoding_looped,3.2.4,59.9776227092286,
,,,,,,,,,,,,,,,images/neuschwanstein_castle_c.jpg,B,scene,51,indirect,,,,,,,,,,,,,,,,,,,,,,,,,,,,,,,,,,,,,,,,,,,,,,,,,,,,,,,,,,,,,,,,,,,,,,,,,,,,,,,,,0,50,50,50,,,,,,,,,,,,,,,,,,,,,,,,,,,,,,,,,,,,,,,,,,,,,,,,,,,,,,,,,,,,,,,74.97923007499776,None,j,0.0282789729826618,74.97923007499776,None,74.97923007499776,None,74.97923007499776,None,74.97923007499776,None,74.97923007499776,None,75.02959988199291,None,8,001,,,2020_Sep_07_1729,reactive_intentional_encoding_looped,3.2.4,59.9776227092286,
,,,,,,,,,,,,,,,images/pen.png,C,object ,52,indirect,,,,,,,,,,,,,,,,,,,,,,,,,,,,,,,,,,,,,,,,,,,,,,,,,,,,,,,,,,,,,,,,,,,,,,,,,,,,,,,,,0,51,51,51,,,,,,,,,,,,,,,,,,,,,,,,,,,,,,,,,,,,,,,,,,,,,,,,,,,,,,,,,,,,,,,75.53650832298445,None,j,0.015953672002069652,75.53650832298445,None,75.53650832298445,None,75.53650832298445,None,75.53650832298445,None,75.53650832298445,None,75.57009694600129,None,8,001,,,2020_Sep_07_1729,reactive_intentional_encoding_looped,3.2.4,59.9776227092286,
,,,,,,,,,,,,,,,images/waikiki_c.jpg,B,scene,53,indirect,,,,,,,,,,,,,,,,,,,,,,,,,,,,,,,,,,,,,,,,,,,,,,,,,,,,,,,,,,,,,,,,,,,,,,,,,,,,,,,,,0,52,52,52,,,,,,,,,,,,,,,,,,,,,,,,,,,,,,,,,,,,,,,,,,,,,,,,,,,,,,,,,,,,,,,76.09025202598423,None,j,0.029313973005628213,76.09025202598423,None,76.09025202598423,None,76.09025202598423,None,76.09025202598423,None,76.09025202598423,None,76.13682396500371,None,8,001,,,2020_Sep_07_1729,reactive_intentional_encoding_looped,3.2.4,59.9776227092286,
,,,,,,,,,,,,,,,images/mug.png,C,object ,54,indirect,,,,,,,,,,,,,,,,,,,,,,,,,,,,,,,,,,,,,,,,,,,,,,,,,,,,,,,,,,,,,,,,,,,,,,,,,,,,,,,,,0,53,53,53,,,,,,,,,,,,,,,,,,,,,,,,,,,,,,,,,,,,,,,,,,,,,,,,,,,,,,,,,,,,,,,76.64616661000764,None,j,0.3376885920006316,76.64616661000764,None,76.64616661000764,None,76.64616661000764,None,76.64616661000764,None,76.64616661000764,None,77.01342402599403,None,8,001,,,2020_Sep_07_1729,reactive_intentional_encoding_looped,3.2.4,59.9776227092286,
,,,,,,,,,,,,,,,images/amy_poehler_c.jpg,B,face,55,indirect,,,,,,,,,,,,,,,,,,,,,,,,,,,,,,,,,,,,,,,,,,,,,,,,,,,,,,,,,,,,,,,,,,,,,,,,,,,,,,,,,0,54,54,54,,,,,,,,,,,,,,,,,,,,,,,,,,,,,,,,,,,,,,,,,,,,,,,,,,,,,,,,,,,,,,,77.53637373898528,None,j,0.135201749013504,77.53637373898528,None,77.53637373898528,None,77.53637373898528,None,77.53637373898528,None,77.53637373898528,None,77.69575377300498,None,8,001,,,2020_Sep_07_1729,reactive_intentional_encoding_looped,3.2.4,59.9776227092286,
,,,,,,,,,,,,,,,images/cleaningGloves.png,new,object ,56,None,,,,,,,,,,,,,,,,,,,,,,,,,,,,,,,,,,,,,,,,,,,,,,,,,,,,,,,,,,,,,,,,,,,,,,,,,,,,,,,,,0,55,55,55,,,,,,,,,,,,,,,,,,,,,,,,,,,,,,,,,,,,,,,,,,,,,,,,,,,,,,,,,,,,,,,78.20390509499703,None,j,0.11848117699264549,78.20390509499703,None,78.20390509499703,None,78.20390509499703,None,78.20390509499703,None,78.20390509499703,None,78.35354050598107,None,8,001,,,2020_Sep_07_1729,reactive_intentional_encoding_looped,3.2.4,59.9776227092286,
,,,,,,,,,,,,,,,images/paddle_bread.png,C,object ,57,direct,,,,,,,,,,,,,,,,,,,,,,,,,,,,,,,,,,,,,,,,,,,,,,,,,,,,,,,,,,,,,,,,,,,,,,,,,,,,,,,,,0,56,56,56,,,,,,,,,,,,,,,,,,,,,,,,,,,,,,,,,,,,,,,,,,,,,,,,,,,,,,,,,,,,,,,78.86961534200236,None,j,0.04968446202110499,78.86961534200236,None,78.86961534200236,None,78.86961534200236,None,78.86961534200236,None,78.86961534200236,None,78.93665623498964,None,8,001,,,2020_Sep_07_1729,reactive_intentional_encoding_looped,3.2.4,59.9776227092286,
,,,,,,,,,,,,,,,images/gaudi_cathedral_c.jpg,B,scene,58,direct,,,,,,,,,,,,,,,,,,,,,,,,,,,,,,,,,,,,,,,,,,,,,,,,,,,,,,,,,,,,,,,,,,,,,,,,,,,,,,,,,0,57,57,57,,,,,,,,,,,,,,,,,,,,,,,,,,,,,,,,,,,,,,,,,,,,,,,,,,,,,,,,,,,,,,,79.46217401299509,None,j,0.10010948500712402,79.46217401299509,None,79.46217401299509,None,79.46217401299509,None,79.46217401299509,None,79.46217401299509,None,79.59565101499902,None,8,001,,,2020_Sep_07_1729,reactive_intentional_encoding_looped,3.2.4,59.9776227092286,
,,,,,,,,,,,,,,,images/notebook_black.png,C,object ,59,indirect,,,,,,,,,,,,,,,,,,,,,,,,,,,,,,,,,,,,,,,,,,,,,,,,,,,,,,,,,,,,,,,,,,,,,,,,,,,,,,,,,0,58,58,58,,,,,,,,,,,,,,,,,,,,,,,,,,,,,,,,,,,,,,,,,,,,,,,,,,,,,,,,,,,,,,,80.10623986099381,None,j,0.08805988798849285,80.10623986099381,None,80.10623986099381,None,80.10623986099381,None,80.10623986099381,None,80.10623986099381,None,80.21218527000747,None,8,001,,,2020_Sep_07_1729,reactive_intentional_encoding_looped,3.2.4,59.9776227092286,
,,,,,,,,,,,,,,,images/forbidden_city_c.jpg,B,scene,60,indirect,,,,,,,,,,,,,,,,,,,,,,,,,,,,,,,,,,,,,,,,,,,,,,,,,,,,,,,,,,,,,,,,,,,,,,,,,,,,,,,,,0,59,59,59,,,,,,,,,,,,,,,,,,,,,,,,,,,,,,,,,,,,,,,,,,,,,,,,,,,,,,,,,,,,,,,80.72871874200064,None,j,0.0548112339747604,80.72871874200064,None,80.72871874200064,None,80.72871874200064,None,80.72871874200064,None,80.72871874200064,None,80.81576463099918,None,8,001,,,2020_Sep_07_1729,reactive_intentional_encoding_looped,3.2.4,59.9776227092286,
,,,,,,,,,,,,,,,images/boat_sail.png,A,object ,61,None,,,,,,,,,,,,,,,,,,,,,,,,,,,,,,,,,,,,,,,,,,,,,,,,,,,,,,,,,,,,,,,,,,,,,,,,,,,,,,,,,0,60,60,60,,,,,,,,,,,,,,,,,,,,,,,,,,,,,,,,,,,,,,,,,,,,,,,,,,,,,,,,,,,,,,,81.33989531800034,None,j,0.030354677001014352,81.33989531800034,None,81.33989531800034,None,81.33989531800034,None,81.33989531800034,None,81.33989531800034,None,81.40317627799232,None,8,001,,,2020_Sep_07_1729,reactive_intentional_encoding_looped,3.2.4,59.9776227092286,
,,,,,,,,,,,,,,,images/mike_myers_c.jpg,new,face,62,None,,,,,,,,,,,,,,,,,,,,,,,,,,,,,,,,,,,,,,,,,,,,,,,,,,,,,,,,,,,,,,,,,,,,,,,,,,,,,,,,,0,61,61,61,,,,,,,,,,,,,,,,,,,,,,,,,,,,,,,,,,,,,,,,,,,,,,,,,,,,,,,,,,,,,,,81.91995136300102,None,j,0.0556319449970033,81.91995136300102,None,81.91995136300102,None,81.91995136300102,None,81.91995136300102,None,81.91995136300102,None,82.0038786669902,None,8,001,,,2020_Sep_07_1729,reactive_intentional_encoding_looped,3.2.4,59.9776227092286,
,,,,,,,,,,,,,,,images/flashlight.png,A,object ,63,None,,,,,,,,,,,,,,,,,,,,,,,,,,,,,,,,,,,,,,,,,,,,,,,,,,,,,,,,,,,,,,,,,,,,,,,,,,,,,,,,,0,62,62,62,,,,,,,,,,,,,,,,,,,,,,,,,,,,,,,,,,,,,,,,,,,,,,,,,,,,,,,,,,,,,,,82.5201326420065,None,j,0.05624518299009651,82.5201326420065,None,82.5201326420065,None,82.5201326420065,None,82.5201326420065,None,82.5201326420065,None,82.60425770498114,None,8,001,,,2020_Sep_07_1729,reactive_intentional_encoding_looped,3.2.4,59.9776227092286,
,,,,,,,,,,,,,,,images/match.png,C,object ,64,direct,,,,,,,,,,,,,,,,,,,,,,,,,,,,,,,,,,,,,,,,,,,,,,,,,,,,,,,,,,,,,,,,,,,,,,,,,,,,,,,,,0,63,63,63,,,,,,,,,,,,,,,,,,,,,,,,,,,,,,,,,,,,,,,,,,,,,,,,,,,,,,,,,,,,,,,83.13300823999452,None,j,0.06535420499858446,83.13300823999452,None,83.13300823999452,None,83.13300823999452,None,83.13300823999452,None,83.13300823999452,None,83.22970635897946,None,8,001,,,2020_Sep_07_1729,reactive_intentional_encoding_looped,3.2.4,59.9776227092286,
,,,,,,,,,,,,,,,images/grand_canyon_c.jpg,B,scene,65,direct,,,,,,,,,,,,,,,,,,,,,,,,,,,,,,,,,,,,,,,,,,,,,,,,,,,,,,,,,,,,,,,,,,,,,,,,,,,,,,,,,0,64,64,64,,,,,,,,,,,,,,,,,,,,,,,,,,,,,,,,,,,,,,,,,,,,,,,,,,,,,,,,,,,,,,,83.74100248099421,None,j,0.013359147997107357,83.74100248099421,None,83.74100248099421,None,83.74100248099421,None,83.74100248099421,None,83.74100248099421,None,83.77271917200414,None,8,001,,,2020_Sep_07_1729,reactive_intentional_encoding_looped,3.2.4,59.9776227092286,
,,,,,,,,,,,,,,,images/scooter.png,A,object ,66,None,,,,,,,,,,,,,,,,,,,,,,,,,,,,,,,,,,,,,,,,,,,,,,,,,,,,,,,,,,,,,,,,,,,,,,,,,,,,,,,,,0,65,65,65,,,,,,,,,,,,,,,,,,,,,,,,,,,,,,,,,,,,,,,,,,,,,,,,,,,,,,,,,,,,,,,84.28699970798334,None,j,0.050124080007663,84.28699970798334,None,84.28699970798334,None,84.28699970798334,None,84.28699970798334,None,84.28699970798334,None,84.36931506099063,None,8,001,,,2020_Sep_07_1729,reactive_intentional_encoding_looped,3.2.4,59.9776227092286,
,,,,,,,,,,,,,,,images/paddle ball.jpg,C,object ,67,direct,,,,,,,,,,,,,,,,,,,,,,,,,,,,,,,,,,,,,,,,,,,,,,,,,,,,,,,,,,,,,,,,,,,,,,,,,,,,,,,,,0,66,66,66,,,,,,,,,,,,,,,,,,,,,,,,,,,,,,,,,,,,,,,,,,,,,,,,,,,,,,,,,,,,,,,84.89553822798189,None,j,0.004944718006299809,84.89553822798189,None,84.89553822798189,None,84.89553822798189,None,84.89553822798189,None,84.89553822798189,None,84.92938625300303,None,8,001,,,2020_Sep_07_1729,reactive_intentional_encoding_looped,3.2.4,59.9776227092286,
,,,,,,,,,,,,,,,images/joshua_tree_c.jpg,B,scene,68,direct,,,,,,,,,,,,,,,,,,,,,,,,,,,,,,,,,,,,,,,,,,,,,,,,,,,,,,,,,,,,,,,,,,,,,,,,,,,,,,,,,0,67,67,67,,,,,,,,,,,,,,,,,,,,,,,,,,,,,,,,,,,,,,,,,,,,,,,,,,,,,,,,,,,,,,,85.43722381998668,None,j,0.5077752310025971,85.43722381998668,None,85.43722381998668,None,85.43722381998668,None,85.43722381998668,None,85.43722381998668,None,85.96307232699473,None,8,001,,,2020_Sep_07_1729,reactive_intentional_encoding_looped,3.2.4,59.9776227092286,
,,,,,,,,,,,,,,,images/gametable_airhockey.png,A,object ,69,None,,,,,,,,,,,,,,,,,,,,,,,,,,,,,,,,,,,,,,,,,,,,,,,,,,,,,,,,,,,,,,,,,,,,,,,,,,,,,,,,,0,68,68,68,,,,,,,,,,,,,,,,,,,,,,,,,,,,,,,,,,,,,,,,,,,,,,,,,,,,,,,,,,,,,,,86.47368155198637,None,j,0.03363367301062681,86.47368155198637,None,86.47368155198637,None,86.47368155198637,None,86.47368155198637,None,86.47368155198637,None,86.53586488298606,None,8,001,,,2020_Sep_07_1729,reactive_intentional_encoding_looped,3.2.4,59.9776227092286,
,,,,,,,,,,,,,,,images/guitar_electric.png,A,object ,70,None,,,,,,,,,,,,,,,,,,,,,,,,,,,,,,,,,,,,,,,,,,,,,,,,,,,,,,,,,,,,,,,,,,,,,,,,,,,,,,,,,0,69,69,69,,,,,,,,,,,,,,,,,,,,,,,,,,,,,,,,,,,,,,,,,,,,,,,,,,,,,,,,,,,,,,,87.06162925699027,None,None,,87.06162925699027,None,87.06162925699027,None,87.06162925699027,None,87.06162925699027,None,87.06162925699027,None,89.06135610499769,None,8,001,,,2020_Sep_07_1729,reactive_intentional_encoding_looped,3.2.4,59.9776227092286,
,,,,,,,,,,,,,,,images/chain_rusty.png,A,object ,71,None,,,,,,,,,,,,,,,,,,,,,,,,,,,,,,,,,,,,,,,,,,,,,,,,,,,,,,,,,,,,,,,,,,,,,,,,,,,,,,,,,0,70,70,70,,,,,,,,,,,,,,,,,,,,,,,,,,,,,,,,,,,,,,,,,,,,,,,,,,,,,,,,,,,,,,,89.57120849500643,None,None,,89.57120849500643,None,89.57120849500643,None,89.57120849500643,None,89.57120849500643,None,89.57120849500643,None,91.57921873399755,None,8,001,,,2020_Sep_07_1729,reactive_intentional_encoding_looped,3.2.4,59.9776227092286,
,,,,,,,,,,,,,,,images/fan.png,A,object ,72,None,,,,,,,,,,,,,,,,,,,,,,,,,,,,,,,,,,,,,,,,,,,,,,,,,,,,,,,,,,,,,,,,,,,,,,,,,,,,,,,,,0,71,71,71,,,,,,,,,,,,,,,,,,,,,,,,,,,,,,,,,,,,,,,,,,,,,,,,,,,,,,,,,,,,,,,92.10661856798106,None,space,1.4471069609862752,92.10661856798106,None,92.10661856798106,None,92.10661856798106,None,92.10661856798106,None,92.10661856798106,None,93.57838216199889,None,8,001,,,2020_Sep_07_1729,reactive_intentional_encoding_looped,3.2.4,59.9776227092286,
,,,,,,,,,,,,,,,images/drum.png,A,object ,73,None,,,,,,,,,,,,,,,,,,,,,,,,,,,,,,,,,,,,,,,,,,,,,,,,,,,,,,,,,,,,,,,,,,,,,,,,,,,,,,,,,0,72,72,72,,,,,,,,,,,,,,,,,,,,,,,,,,,,,,,,,,,,,,,,,,,,,,,,,,,,,,,,,,,,,,,94.33060940698488,None,space,0.4968164820165839,94.33060940698488,None,94.33060940698488,None,94.33060940698488,None,94.33060940698488,None,94.33060940698488,None,94.8466962389939,None,8,001,,,2020_Sep_07_1729,reactive_intentional_encoding_looped,3.2.4,59.9776227092286,
,,,,,,,,,,,,,,,images/mask_black.jpg,C,object ,74,indirect,,,,,,,,,,,,,,,,,,,,,,,,,,,,,,,,,,,,,,,,,,,,,,,,,,,,,,,,,,,,,,,,,,,,,,,,,,,,,,,,,0,73,73,73,,,,,,,,,,,,,,,,,,,,,,,,,,,,,,,,,,,,,,,,,,,,,,,,,,,,,,,,,,,,,,,95.38452149799559,None,space,0.03694570800871588,95.38452149799559,None,95.38452149799559,None,95.38452149799559,None,95.38452149799559,None,95.38452149799559,None,95.44460822100518,None,8,001,,,2020_Sep_07_1729,reactive_intentional_encoding_looped,3.2.4,59.9776227092286,
,,,,,,,,,,,,,,,images/drew_barrymore_c.jpg,B,face,75,indirect,,,,,,,,,,,,,,,,,,,,,,,,,,,,,,,,,,,,,,,,,,,,,,,,,,,,,,,,,,,,,,,,,,,,,,,,,,,,,,,,,0,74,74,74,,,,,,,,,,,,,,,,,,,,,,,,,,,,,,,,,,,,,,,,,,,,,,,,,,,,,,,,,,,,,,,95.95069697999861,None,space,0.04172728999401443,95.95069697999861,None,95.95069697999861,None,95.95069697999861,None,95.95069697999861,None,95.95069697999861,None,96.01085841699387,None,8,001,,,2020_Sep_07_1729,reactive_intentional_encoding_looped,3.2.4,59.9776227092286,
,,,,,,,,,,,,,,,images/milk_shake.jpg,C,object ,76,direct,,,,,,,,,,,,,,,,,,,,,,,,,,,,,,,,,,,,,,,,,,,,,,,,,,,,,,,,,,,,,,,,,,,,,,,,,,,,,,,,,0,75,75,75,,,,,,,,,,,,,,,,,,,,,,,,,,,,,,,,,,,,,,,,,,,,,,,,,,,,,,,,,,,,,,,96.51911558699794,None,space,0.1023001570138149,96.51911558699794,None,96.51911558699794,None,96.51911558699794,None,96.51911558699794,None,96.51911558699794,None,96.64480271999491,None,8,001,,,2020_Sep_07_1729,reactive_intentional_encoding_looped,3.2.4,59.9776227092286,
,,,,,,,,,,,,,,,images/iguazu_falls_b.jpg,B,scene,77,direct,,,,,,,,,,,,,,,,,,,,,,,,,,,,,,,,,,,,,,,,,,,,,,,,,,,,,,,,,,,,,,,,,,,,,,,,,,,,,,,,,0,76,76,76,,,,,,,,,,,,,,,,,,,,,,,,,,,,,,,,,,,,,,,,,,,,,,,,,,,,,,,,,,,,,,,97.15035209298367,None,space,0.041174031008267775,97.15035209298367,None,97.15035209298367,None,97.15035209298367,None,97.15035209298367,None,97.15035209298367,None,97.21186959400075,None,8,001,,,2020_Sep_07_1729,reactive_intentional_encoding_looped,3.2.4,59.9776227092286,
,,,,,,,,,,,,,,,images/megaphone.png,C,object ,78,indirect,,,,,,,,,,,,,,,,,,,,,,,,,,,,,,,,,,,,,,,,,,,,,,,,,,,,,,,,,,,,,,,,,,,,,,,,,,,,,,,,,0,77,77,77,,,,,,,,,,,,,,,,,,,,,,,,,,,,,,,,,,,,,,,,,,,,,,,,,,,,,,,,,,,,,,,97.71699992398499,None,None,,97.71699992398499,None,97.71699992398499,None,97.71699992398499,None,97.71699992398499,None,97.71699992398499,None,99.72886544198263,None,8,001,,,2020_Sep_07_1729,reactive_intentional_encoding_looped,3.2.4,59.9776227092286,
,,,,,,,,,,,,,,,images/mark_zuckerberg_c.jpg,B,face,79,indirect,,,,,,,,,,,,,,,,,,,,,,,,,,,,,,,,,,,,,,,,,,,,,,,,,,,,,,,,,,,,,,,,,,,,,,,,,,,,,,,,,0,78,78,78,,,,,,,,,,,,,,,,,,,,,,,,,,,,,,,,,,,,,,,,,,,,,,,,,,,,,,,,,,,,,,,100.2343910089985,None,None,,100.2343910089985,None,100.2343910089985,None,100.2343910089985,None,100.2343910089985,None,100.2343910089985,None,102.24456406198442,None,8,001,,,2020_Sep_07_1729,reactive_intentional_encoding_looped,3.2.4,59.9776227092286,
,,,,,,,,,,,,,,,images/coin.jpg,new,object ,80,None,,,,,,,,,,,,,,,,,,,,,,,,,,,,,,,,,,,,,,,,,,,,,,,,,,,,,,,,,,,,,,,,,,,,,,,,,,,,,,,,,0,79,79,79,,,,,,,,,,,,,,,,,,,,,,,,,,,,,,,,,,,,,,,,,,,,,,,,,,,,,,,,,,,,,,,102.76192634398467,None,None,,102.76192634398467,None,102.76192634398467,None,102.76192634398467,None,102.76192634398467,None,102.76192634398467,None,104.76217687898315,None,8,001,,,2020_Sep_07_1729,reactive_intentional_encoding_looped,3.2.4,59.9776227092286,
,,,,,,,,,,,,,,,images/toyTrain.png,C,object ,81,indirect,,,,,,,,,,,,,,,,,,,,,,,,,,,,,,,,,,,,,,,,,,,,,,,,,,,,,,,,,,,,,,,,,,,,,,,,,,,,,,,,,0,80,80,80,,,,,,,,,,,,,,,,,,,,,,,,,,,,,,,,,,,,,,,,,,,,,,,,,,,,,,,,,,,,,,,105.27905651798937,None,space,1.6446631679718848,105.27905651798937,None,105.27905651798937,None,105.27905651798937,None,105.27905651798937,None,105.27905651798937,None,106.94646096299402,None,8,001,,,2020_Sep_07_1729,reactive_intentional_encoding_looped,3.2.4,59.9776227092286,
,,,,,,,,,,,,,,,images/bill_gates_a.jpg,B,face,82,indirect,,,,,,,,,,,,,,,,,,,,,,,,,,,,,,,,,,,,,,,,,,,,,,,,,,,,,,,,,,,,,,,,,,,,,,,,,,,,,,,,,0,81,81,81,,,,,,,,,,,,,,,,,,,,,,,,,,,,,,,,,,,,,,,,,,,,,,,,,,,,,,,,,,,,,,,107.45374309399631,None,space,0.08051329597947188,107.45374309399631,None,107.45374309399631,None,107.45374309399631,None,107.45374309399631,None,107.45374309399631,None,107.56171015600557,None,8,001,,,2020_Sep_07_1729,reactive_intentional_encoding_looped,3.2.4,59.9776227092286,
,,,,,,,,,,,,,,,images/portapotty.png,A,object ,83,None,,,,,,,,,,,,,,,,,,,,,,,,,,,,,,,,,,,,,,,,,,,,,,,,,,,,,,,,,,,,,,,,,,,,,,,,,,,,,,,,,0,82,82,82,,,,,,,,,,,,,,,,,,,,,,,,,,,,,,,,,,,,,,,,,,,,,,,,,,,,,,,,,,,,,,,108.07778958900599,None,space,0.024308966007083654,108.07778958900599,None,108.07778958900599,None,108.07778958900599,None,108.07778958900599,None,108.07778958900599,None,108.12913794998894,None,8,001,,,2020_Sep_07_1729,reactive_intentional_encoding_looped,3.2.4,59.9776227092286,
,,,,,,,,,,,,,,,images/shoe_pumps.jpg,A,object ,84,None,,,,,,,,,,,,,,,,,,,,,,,,,,,,,,,,,,,,,,,,,,,,,,,,,,,,,,,,,,,,,,,,,,,,,,,,,,,,,,,,,0,83,83,83,,,,,,,,,,,,,,,,,,,,,,,,,,,,,,,,,,,,,,,,,,,,,,,,,,,,,,,,,,,,,,,108.6479220809997,None,space,0.0030594140116591007,108.6479220809997,None,108.6479220809997,None,108.6479220809997,None,108.6479220809997,None,108.6479220809997,None,108.67944643599913,None,8,001,,,2020_Sep_07_1729,reactive_intentional_encoding_looped,3.2.4,59.9776227092286,
,,,,,,,,,,,,,,,images/ribbon.jpg,new,object ,85,None,,,,,,,,,,,,,,,,,,,,,,,,,,,,,,,,,,,,,,,,,,,,,,,,,,,,,,,,,,,,,,,,,,,,,,,,,,,,,,,,,0,84,84,84,,,,,,,,,,,,,,,,,,,,,,,,,,,,,,,,,,,,,,,,,,,,,,,,,,,,,,,,,,,,,,,109.21149636100745,None,space,0.6023483519966248,109.21149636100745,None,109.21149636100745,None,109.21149636100745,None,109.21149636100745,None,109.21149636100745,None,109.84581654600333,None,8,001,,,2020_Sep_07_1729,reactive_intentional_encoding_looped,3.2.4,59.9776227092286,
,,,,,,,,,,,,,,,images/ring_diamond.png,A,object ,86,None,,,,,,,,,,,,,,,,,,,,,,,,,,,,,,,,,,,,,,,,,,,,,,,,,,,,,,,,,,,,,,,,,,,,,,,,,,,,,,,,,0,85,85,85,,,,,,,,,,,,,,,,,,,,,,,,,,,,,,,,,,,,,,,,,,,,,,,,,,,,,,,,,,,,,,,110.35453015199164,None,space,0.053384630009531975,110.35453015199164,None,110.35453015199164,None,110.35453015199164,None,110.35453015199164,None,110.35453015199164,None,110.42841490000137,None,8,001,,,2020_Sep_07_1729,reactive_intentional_encoding_looped,3.2.4,59.9776227092286,
,,,,,,,,,,,,,,,images/teddybear_brown.jpg,C,object ,87,direct,,,,,,,,,,,,,,,,,,,,,,,,,,,,,,,,,,,,,,,,,,,,,,,,,,,,,,,,,,,,,,,,,,,,,,,,,,,,,,,,,0,86,86,86,,,,,,,,,,,,,,,,,,,,,,,,,,,,,,,,,,,,,,,,,,,,,,,,,,,,,,,,,,,,,,,110.9448254169838,None,None,,110.9448254169838,None,110.9448254169838,None,110.9448254169838,None,110.9448254169838,None,110.9448254169838,None,112.94557791299303,None,8,001,,,2020_Sep_07_1729,reactive_intentional_encoding_looped,3.2.4,59.9776227092286,
,,,,,,,,,,,,,,,images/cn_tower_b.jpg,B,scene,88,direct,,,,,,,,,,,,,,,,,,,,,,,,,,,,,,,,,,,,,,,,,,,,,,,,,,,,,,,,,,,,,,,,,,,,,,,,,,,,,,,,,0,87,87,87,,,,,,,,,,,,,,,,,,,,,,,,,,,,,,,,,,,,,,,,,,,,,,,,,,,,,,,,,,,,,,,113.46167119898018,None,space,0.6624626620032359,113.46167119898018,None,113.46167119898018,None,113.46167119898018,None,113.46167119898018,None,113.46167119898018,None,114.14539021000382,None,8,001,,,2020_Sep_07_1729,reactive_intentional_encoding_looped,3.2.4,59.9776227092286,
,,,,,,,,,,,,,,,images/ball_baseball.png,A,object ,89,None,,,,,,,,,,,,,,,,,,,,,,,,,,,,,,,,,,,,,,,,,,,,,,,,,,,,,,,,,,,,,,,,,,,,,,,,,,,,,,,,,0,88,88,88,,,,,,,,,,,,,,,,,,,,,,,,,,,,,,,,,,,,,,,,,,,,,,,,,,,,,,,,,,,,,,,114.6527444490057,None,space,0.0984592720051296,114.6527444490057,None,114.6527444490057,None,114.6527444490057,None,114.6527444490057,None,114.6527444490057,None,114.77845245299977,None,8,001,,,2020_Sep_07_1729,reactive_intentional_encoding_looped,3.2.4,59.9776227092286,
,,,,,,,,,,,,,,,images/skirt.jpg,A,object ,90,None,,,,,,,,,,,,,,,,,,,,,,,,,,,,,,,,,,,,,,,,,,,,,,,,,,,,,,,,,,,,,,,,,,,,,,,,,,,,,,,,,0,89,89,89,,,,,,,,,,,,,,,,,,,,,,,,,,,,,,,,,,,,,,,,,,,,,,,,,,,,,,,,,,,,,,,115.29440319698188,None,None,,115.29440319698188,None,115.29440319698188,None,115.29440319698188,None,115.29440319698188,None,115.29440319698188,None,117.2956038150005,None,8,001,,,2020_Sep_07_1729,reactive_intentional_encoding_looped,3.2.4,59.9776227092286,
,,,,,,,,,,,,,,,images/firehydrant.png,A,object ,91,None,,,,,,,,,,,,,,,,,,,,,,,,,,,,,,,,,,,,,,,,,,,,,,,,,,,,,,,,,,,,,,,,,,,,,,,,,,,,,,,,,0,90,90,90,,,,,,,,,,,,,,,,,,,,,,,,,,,,,,,,,,,,,,,,,,,,,,,,,,,,,,,,,,,,,,,117.8116806379985,None,None,,117.8116806379985,None,117.8116806379985,None,117.8116806379985,None,117.8116806379985,None,117.8116806379985,None,119.81218380399514,None,8,001,,,2020_Sep_07_1729,reactive_intentional_encoding_looped,3.2.4,59.9776227092286,
,,,,,,,,,,,,,,,images/pacifier.png,C,object ,92,direct,,,,,,,,,,,,,,,,,,,,,,,,,,,,,,,,,,,,,,,,,,,,,,,,,,,,,,,,,,,,,,,,,,,,,,,,,,,,,,,,,0,91,91,91,,,,,,,,,,,,,,,,,,,,,,,,,,,,,,,,,,,,,,,,,,,,,,,,,,,,,,,,,,,,,,,120.31875017800485,None,space,0.9711772680166177,120.31875017800485,None,120.31875017800485,None,120.31875017800485,None,120.31875017800485,None,120.31875017800485,None,121.31354142300552,None,8,001,,,2020_Sep_07_1729,reactive_intentional_encoding_looped,3.2.4,59.9776227092286,
,,,,,,,,,,,,,,,images/michelle_obama_a.jpg,B,face,93,direct,,,,,,,,,,,,,,,,,,,,,,,,,,,,,,,,,,,,,,,,,,,,,,,,,,,,,,,,,,,,,,,,,,,,,,,,,,,,,,,,,0,92,92,92,,,,,,,,,,,,,,,,,,,,,,,,,,,,,,,,,,,,,,,,,,,,,,,,,,,,,,,,,,,,,,,121.83372035599314,None,space,0.007942721014842391,121.83372035599314,None,121.83372035599314,None,121.83372035599314,None,121.83372035599314,None,121.83372035599314,None,121.86346157899243,None,8,001,,,2020_Sep_07_1729,reactive_intentional_encoding_looped,3.2.4,59.9776227092286,
,,,,,,,,,,,,,,,images/drill.jpg,A,object ,94,None,,,,,,,,,,,,,,,,,,,,,,,,,,,,,,,,,,,,,,,,,,,,,,,,,,,,,,,,,,,,,,,,,,,,,,,,,,,,,,,,,0,93,93,93,,,,,,,,,,,,,,,,,,,,,,,,,,,,,,,,,,,,,,,,,,,,,,,,,,,,,,,,,,,,,,,122.3955340179964,None,None,,122.3955340179964,None,122.3955340179964,None,122.3955340179964,None,122.3955340179964,None,122.3955340179964,None,124.3952964739874,None,8,001,,,2020_Sep_07_1729,reactive_intentional_encoding_looped,3.2.4,59.9776227092286,
,,,,,,,,,,,,,,,images/orlando_bloom_b.jpg,new,face,95,None,,,,,,,,,,,,,,,,,,,,,,,,,,,,,,,,,,,,,,,,,,,,,,,,,,,,,,,,,,,,,,,,,,,,,,,,,,,,,,,,,0,94,94,94,,,,,,,,,,,,,,,,,,,,,,,,,,,,,,,,,,,,,,,,,,,,,,,,,,,,,,,,,,,,,,,124.90162105698255,None,space,1.3345312020101119,124.90162105698255,None,124.90162105698255,None,124.90162105698255,None,124.90162105698255,None,124.90162105698255,None,126.26232491299743,None,8,001,,,2020_Sep_07_1729,reactive_intentional_encoding_looped,3.2.4,59.9776227092286,
,,,,,,,,,,,,,,,images/bandage.jpg,A,object ,96,None,,,,,,,,,,,,,,,,,,,,,,,,,,,,,,,,,,,,,,,,,,,,,,,,,,,,,,,,,,,,,,,,,,,,,,,,,,,,,,,,,0,95,95,95,,,,,,,,,,,,,,,,,,,,,,,,,,,,,,,,,,,,,,,,,,,,,,,,,,,,,,,,,,,,,,,126.77850467897952,None,space,0.07140521999099292,126.77850467897952,None,126.77850467897952,None,126.77850467897952,None,126.77850467897952,None,126.77850467897952,None,126.87875567999436,None,8,001,,,2020_Sep_07_1729,reactive_intentional_encoding_looped,3.2.4,59.9776227092286,
,,,,,,,,,,,,,,,images/waterloo_belgium.jpg,new,scene,97,None,,,,,,,,,,,,,,,,,,,,,,,,,,,,,,,,,,,,,,,,,,,,,,,,,,,,,,,,,,,,,,,,,,,,,,,,,,,,,,,,,0,96,96,96,,,,,,,,,,,,,,,,,,,,,,,,,,,,,,,,,,,,,,,,,,,,,,,,,,,,,,,,,,,,,,,127.39546755800257,None,None,,127.39546755800257,None,127.39546755800257,None,127.39546755800257,None,127.39546755800257,None,127.39546755800257,None,129.3945629329828,None,8,001,,,2020_Sep_07_1729,reactive_intentional_encoding_looped,3.2.4,59.9776227092286,
,,,,,,,,,,,,,,,images/bib.png,A,object ,98,None,,,,,,,,,,,,,,,,,,,,,,,,,,,,,,,,,,,,,,,,,,,,,,,,,,,,,,,,,,,,,,,,,,,,,,,,,,,,,,,,,0,97,97,97,,,,,,,,,,,,,,,,,,,,,,,,,,,,,,,,,,,,,,,,,,,,,,,,,,,,,,,,,,,,,,,129.91212771798018,None,None,,129.91212771798018,None,129.91212771798018,None,129.91212771798018,None,129.91212771798018,None,129.91212771798018,None,131.91208996300702,None,8,001,,,2020_Sep_07_1729,reactive_intentional_encoding_looped,3.2.4,59.9776227092286,
