instructions1,Instructions2,Image1,Image2,Image3,Image_4,position_1x,position_1y,position_2x,position_2y,J_key,K_key,L_key,yes_text,no_text,trial_in_list,image_a,location1,correct_category_pair,location2,location3,correct_image,List,trial_num,block,Trial,ImageA,ImageB,ImageC,CategoryB,ListNum,V1,trial,instruction_intentional_encoding.thisRepN,instruction_intentional_encoding.thisTrialN,instruction_intentional_encoding.thisN,instruction_intentional_encoding.thisIndex,practice_trials_intentional_encoding.thisRepN,practice_trials_intentional_encoding.thisTrialN,practice_trials_intentional_encoding.thisN,practice_trials_intentional_encoding.thisIndex,trials.thisRepN,trials.thisTrialN,trials.thisN,trials.thisIndex,trials_4.thisRepN,trials_4.thisTrialN,trials_4.thisN,trials_4.thisIndex,trials_2.thisRepN,trials_2.thisTrialN,trials_2.thisN,trials_2.thisIndex,trials_5.thisRepN,trials_5.thisTrialN,trials_5.thisN,trials_5.thisIndex,trials_3.thisRepN,trials_3.thisTrialN,trials_3.thisN,trials_3.thisIndex,text.started,text.stopped,instructions_text2.started,instructions_text2.stopped,response.keys,response.rt,response.started,response.stopped,image1.started,image1.stopped,image2.started,image2.stopped,J_press_instructions.started,J_press_instructions.stopped,F_key_instruct.started,F_key_instruct.stopped,arrow.started,arrow.stopped,yes_press.started,yes_press.stopped,no_press.started,no_press.stopped,imageA.started,imageA.stopped,b_image.started,b_image.stopped,text_9.started,text_9.stopped,key_resp_3.keys,key_resp_3.rt,key_resp_3.started,key_resp_3.stopped,image_pair1.started,image_pair1.stopped,image_pair2.started,image_pair2.stopped,text_3.started,text_3.stopped,text_4.started,text_4.stopped,image_3.started,image_3.stopped,key_resp.keys,key_resp.rt,key_resp.started,key_resp.stopped,text_5.started,text_5.stopped,text_8.started,text_8.stopped,key_resp_2.keys,key_resp_2.rt,key_resp_2.started,key_resp_2.stopped,image.started,image.stopped,image_2.started,image_2.stopped,image_5.started,image_5.stopped,image_6.started,image_6.stopped,K.started,K.stopped,L.started,L.stopped,J.started,J.stopped,image_a_practice.started,image_a_practice.stopped,fixation.started,fixation.stopped,afc_test_practice.started,afc_test_practice.stopped,location1_practice.started,location1_practice.stopped,location2_practice.started,location2_practice.stopped,location3_practice.started,location3_practice.stopped,j_key_test_practice.started,j_key_test_practice.stopped,K_key_practice.started,K_key_practice.stopped,L_key_practice.started,L_key_practice.stopped,fix.started,fix.stopped,image_11.started,image_11.stopped,image_12.started,image_12.stopped,text_7.started,text_7.stopped,text_17.started,text_17.stopped,post_retreival_practice_intructions.started,post_retreival_practice_intructions.stopped,key_resp_4.keys,key_resp_4.rt,key_resp_4.started,key_resp_4.stopped,instruct_text.started,instruct_text.stopped,a_image_retrieve.started,a_image_retrieve.stopped,text_2.started,text_2.stopped,afc_text.started,afc_text.stopped,image_4.started,image_4.stopped,image_9.started,image_9.stopped,image_10.started,image_10.stopped,j_key_test.started,j_key_test.stopped,K_key_test.started,K_key_test.stopped,L_key_test.started,L_key_test.stopped,correct_image_.started,correct_image_.stopped,correct_image2.started,correct_image2.stopped,pre_fix_reencode.started,pre_fix_reencode.stopped,Feedback.started,Feedback.stopped,participant,sex,age,,date,expName,psychopyVersion,frameRate,
"Welcome to the memory game! In this game, you must learn which images go together.",Press space to continue!,None,None,None,None,0.0,0.3,0.0,-0.4, , , , , ,,,,,,,,,,,,,,,,,,,0,0,0,0,,,,,,,,,,,,,,,,,,,,,,,,,8.970192982000299,None,8.970192982000299,None,space,1.3854683169920463,8.970192982000299,None,8.970192982000299,None,8.970192982000299,None,8.919980445003603,None,8.919980445003603,None,8.919980445003603,None,8.919980445003603,None,8.919980445003603,None,,,,,,,,,,,,,,,,,,,,,,,,,,,,,,,,,,,,,,,,,,,,,,,,,,,,,,,,,,,,,,,,,,,,,,,,,,,,,,,,,,,,,,,,,,,,,,,,,,,,,,,,,,,,,9,001,,,2020_Sep_05_1736,reactive_intentional_encoding_looped,3.2.4,59.727416378634096,
"You will see two images on the left and right side of the screen, like this.",Press space to continue!,instruction_images/jessica_alba.jpg,instruction_images/oldBook.png,None,None,0.0,0.3,0.0,-0.4, , , , , ,,,,,,,,,,,,,,,,,,,0,1,1,1,,,,,,,,,,,,,,,,,,,,,,,,,10.555071744020097,None,10.555071744020097,None,space,0.7878043219971005,10.555071744020097,None,10.555071744020097,None,10.555071744020097,None,10.40833004002343,None,10.40833004002343,None,10.40833004002343,None,10.40833004002343,None,10.40833004002343,None,,,,,,,,,,,,,,,,,,,,,,,,,,,,,,,,,,,,,,,,,,,,,,,,,,,,,,,,,,,,,,,,,,,,,,,,,,,,,,,,,,,,,,,,,,,,,,,,,,,,,,,,,,,,,9,001,,,2020_Sep_05_1736,reactive_intentional_encoding_looped,3.2.4,59.727416378634096,
Your job is to remember that these images go together. ,Press space to continue!,instruction_images/jessica_alba.jpg,instruction_images/oldBook.png,None,None,0.0,0.3,0.0,-0.4, , , , , ,,,,,,,,,,,,,,,,,,,0,2,2,2,,,,,,,,,,,,,,,,,,,,,,,,,11.487930615025107,None,11.487930615025107,None,space,0.7006575299892575,11.487930615025107,None,11.487930615025107,None,11.487930615025107,None,11.406963976012776,None,11.406963976012776,None,11.406963976012776,None,11.406963976012776,None,11.406963976012776,None,,,,,,,,,,,,,,,,,,,,,,,,,,,,,,,,,,,,,,,,,,,,,,,,,,,,,,,,,,,,,,,,,,,,,,,,,,,,,,,,,,,,,,,,,,,,,,,,,,,,,,,,,,,,,9,001,,,2020_Sep_05_1736,reactive_intentional_encoding_looped,3.2.4,59.727416378634096,
"You could link them through a story. For example, jessica alba likes books.",Press space to continue!,instruction_images/jessica_alba.jpg,instruction_images/oldBook.png,None,None,0.0,0.3,0.0,-0.4, , , , , ,,,,,,,,,,,,,,,,,,,0,3,3,3,,,,,,,,,,,,,,,,,,,,,,,,,12.340389505028725,None,12.340389505028725,None,space,0.8891456109995488,12.340389505028725,None,12.340389505028725,None,12.340389505028725,None,12.26956717701978,None,12.26956717701978,None,12.26956717701978,None,12.26956717701978,None,12.26956717701978,None,,,,,,,,,,,,,,,,,,,,,,,,,,,,,,,,,,,,,,,,,,,,,,,,,,,,,,,,,,,,,,,,,,,,,,,,,,,,,,,,,,,,,,,,,,,,,,,,,,,,,,,,,,,,,9,001,,,2020_Sep_05_1736,reactive_intentional_encoding_looped,3.2.4,59.727416378634096,
"After you see the images, we will test your memory.",Press space to continue!,instruction_images/jessica_alba.jpg,instruction_images/oldBook.png,None,None,0.0,0.3,0.0,-0.4, , , , , ,,,,,,,,,,,,,,,,,,,0,4,4,4,,,,,,,,,,,,,,,,,,,,,,,,,13.37212268600706,None,13.37212268600706,None,space,0.8173707420064602,13.37212268600706,None,13.37212268600706,None,13.37212268600706,None,13.302457951009274,None,13.302457951009274,None,13.302457951009274,None,13.302457951009274,None,13.302457951009274,None,,,,,,,,,,,,,,,,,,,,,,,,,,,,,,,,,,,,,,,,,,,,,,,,,,,,,,,,,,,,,,,,,,,,,,,,,,,,,,,,,,,,,,,,,,,,,,,,,,,,,,,,,,,,,9,001,,,2020_Sep_05_1736,reactive_intentional_encoding_looped,3.2.4,59.727416378634096,
"Get ready to see the images! Each pair will only last on the screen for a few seconds, so pay attention.",Press space to continue!,instruction_images/jessica_alba.jpg,instruction_images/oldBook.png,None,None,0.0,0.3,0.0,-0.4, , , , , ,,,,,,,,,,,,,,,,,,,0,5,5,5,,,,,,,,,,,,,,,,,,,,,,,,,14.35212542800582,None,14.35212542800582,None,space,0.7492626339953858,14.35212542800582,None,14.35212542800582,None,14.35212542800582,None,14.270914192020427,None,14.270914192020427,None,14.270914192020427,None,14.270914192020427,None,14.270914192020427,None,,,,,,,,,,,,,,,,,,,,,,,,,,,,,,,,,,,,,,,,,,,,,,,,,,,,,,,,,,,,,,,,,,,,,,,,,,,,,,,,,,,,,,,,,,,,,,,,,,,,,,,,,,,,,9,001,,,2020_Sep_05_1736,reactive_intentional_encoding_looped,3.2.4,59.727416378634096,
We'll first do a practice to get you familiar with the game.,Press space to continue!,instruction_images/jessica_alba.jpg,instruction_images/oldBook.png,None,None,0.0,0.3,0.0,-0.4, , , , , ,,,,,,,,,,,,,,,,,,,0,6,6,6,,,,,,,,,,,,,,,,,,,,,,,,,15.21929637802532,None,15.21929637802532,None,space,1.086126226990018,15.21929637802532,None,15.21929637802532,None,15.21929637802532,None,15.151545736007392,None,15.151545736007392,None,15.151545736007392,None,15.151545736007392,None,15.151545736007392,None,,,,,,,,,,,,,,,,,,,,,,,,,,,,,,,,,,,,,,,,,,,,,,,,,,,,,,,,,,,,,,,,,,,,,,,,,,,,,,,,,,,,,,,,,,,,,,,,,,,,,,,,,,,,,9,001,,,2020_Sep_05_1736,reactive_intentional_encoding_looped,3.2.4,59.727416378634096,
"When you're ready to start the practice, press space!",Press space to continue!,None,None,None,None,0.0,0.0,None,None, , , , , ,,,,,,,,,,,,,,,,,,,0,7,7,7,,,,,,,,,,,,,,,,,,,,,,,,,16.435318974021357,None,16.435318974021357,None,space,0.8820996910217218,16.435318974021357,None,16.435318974021357,None,16.435318974021357,None,16.384702491021017,None,16.384702491021017,None,16.384702491021017,None,16.384702491021017,None,16.384702491021017,None,,,,,,,,,,,,,,,,,,,,,,,,,,,,,,,,,,,,,,,,,,,,,,,,,,,,,,,,,,,,,,,,,,,,,,,,,,,,,,,,,,,,,,,,,,,,,,,,,,,,,,,,,,,,,9,001,,,2020_Sep_05_1736,reactive_intentional_encoding_looped,3.2.4,59.727416378634096,
,,,,,,,,,,,,,,,1,images/giftbow01.png,images/willie_nelson_b.jpg,object-face,images/electricoutlet.png,images/chick.jpg,images/willie_nelson_b.jpg,0,0,practice,,,,,,,,,,,,,0,0,0,0,,,,,,,,,,,,,,,,,,,,,,,,,,,,,,,,,,,,,,,,,,,17.401550648006378,None,17.401550648006378,None,,,,,,,,,,,,,,,,,,,,,,,,,,,,,,,,,,,,,,,,,,,,,,,,,,,,,,,,,,,,,,,,,,,,,,,,,,,,,,,,,,,,,,,,,,,,,,,,,,,,,,,,,9,001,,,2020_Sep_05_1736,reactive_intentional_encoding_looped,3.2.4,59.727416378634096,
,,,,,,,,,,,,,,,2,images/globe.png,images/earrings_dangling.jpg,object-scene,images/wrigley_field_b.jpg,images/barrel.jpg,images/wrigley_field_b.jpg,0,0,practice,,,,,,,,,,,,,0,1,1,1,,,,,,,,,,,,,,,,,,,,,,,,,,,,,,,,,,,,,,,,,,,17.534998977003852,None,17.534998977003852,None,,,,,,,,,,,,,,,,,,,,,,,,,,,,,,,,,,,,,,,,,,,,,,,,,,,,,,,,,,,,,,,,,,,,,,,,,,,,,,,,,,,,,,,,,,,,,,,,,,,,,,,,,9,001,,,2020_Sep_05_1736,reactive_intentional_encoding_looped,3.2.4,59.727416378634096,
,,,,,,,,,,,,,,,3,images/glassBall.jpg,images/westminster_abbey_a.jpg,object-scene,images/beetle.png,images/statue_of_liberty.jpg,images/westminster_abbey_a.jpg,0,0,practice,,,,,,,,,,,,,0,2,2,2,,,,,,,,,,,,,,,,,,,,,,,,,,,,,,,,,,,,,,,,,,,17.61817113001598,None,17.61817113001598,None,,,,,,,,,,,,,,,,,,,,,,,,,,,,,,,,,,,,,,,,,,,,,,,,,,,,,,,,,,,,,,,,,,,,,,,,,,,,,,,,,,,,,,,,,,,,,,,,,,,,,,,,,9,001,,,2020_Sep_05_1736,reactive_intentional_encoding_looped,3.2.4,59.727416378634096,
,,,,,,,,,,,,,,,4,images/gazebo_wooden.png,images/ray_romano.jpg,object-face,images/john_stamos.jpg,images/natalie_portman.jpg,images/natalie_portman.jpg,0,0,practice,,,,,,,,,,,,,0,3,3,3,,,,,,,,,,,,,,,,,,,,,,,,,,,,,,,,,,,,,,,,,,,17.70931395102525,None,17.70931395102525,None,,,,,,,,,,,,,,,,,,,,,,,,,,,,,,,,,,,,,,,,,,,,,,,,,,,,,,,,,,,,,,,,,,,,,,,,,,,,,,,,,,,,,,,,,,,,,,,,,,,,,,,,,9,001,,,2020_Sep_05_1736,reactive_intentional_encoding_looped,3.2.4,59.727416378634096,
,,,,,,,,,,,,,,,5,images/helicopter.jpg,images/bench_park.png,object-face,images/bird_parrot.png,images/julia_louis_dreyfus.jpg,images/julia_louis_dreyfus.jpg,0,0,practice,,,,,,,,,,,,,0,4,4,4,,,,,,,,,,,,,,,,,,,,,,,,,,,,,,,,,,,,,,,,,,,17.818365892017027,None,17.818365892017027,None,,,,,,,,,,,,,,,,,,,,,,,,,,,,,,,,,,,,,,,,,,,,,,,,,,,,,,,,,,,,,,,,,,,,,,,,,,,,,,,,,,,,,,,,,,,,,,,,,,,,,,,,,9,001,,,2020_Sep_05_1736,reactive_intentional_encoding_looped,3.2.4,59.727416378634096,
,,,,,,,,,,,,,,,,,,,,,,,,,,,,,,,,,,,,,,,,,,,,,,,,,,,,,,,,,,,,,,,,,,,,,,,,,,,,,,,,,,,,,,,17.87122100801207,None,space,0.6840808150009252,18.338275378016988,None,,,,,,,,,,,,,,,,,,,,,,,,,,,,,,,,,,,,,,,,,,,,,,,,,,,,,,,,,,,,,,,,,,,,,,,,,,,,,,,,,,,,,,,,,,,,,,,,,,,9,001,,,2020_Sep_05_1736,reactive_intentional_encoding_looped,3.2.4,59.727416378634096,
,,,,,,,,,,,,,,,,,,,,,,,,,1,images/sundae_banana.jpg,images/eiffel_tower_c.jpg,images/mitten.png,object-scene,None,,,,,,,,,,,0,0,0,0,,,,,,,,,,,,,,,,,,,,,,,,,,,,,,,,,,,,,,,,,,,,,,,,,19.571307916019578,None,19.571307916019578,None,,,,,,,,,,,,,,,,,,,,,,,,,,,,,,,,,,,,,,,,,,,,,,,,,,,,,,,,,,,,,,,,,,,,,,,,,,,,,,,,,,,,,,,,,,,,,,,9,001,,,2020_Sep_05_1736,reactive_intentional_encoding_looped,3.2.4,59.727416378634096,
,,,,,,,,,,,,,,,,,,,,,,,,,2,images/castle_sand.png,images/gwen_stefani_c.jpg,images/mask_hockeygoalie.png,object-face,None,,,,,,,,,,,0,1,1,1,,,,,,,,,,,,,,,,,,,,,,,,,,,,,,,,,,,,,,,,,,,,,,,,,20.57144538301509,None,20.57144538301509,None,,,,,,,,,,,,,,,,,,,,,,,,,,,,,,,,,,,,,,,,,,,,,,,,,,,,,,,,,,,,,,,,,,,,,,,,,,,,,,,,,,,,,,,,,,,,,,,9,001,,,2020_Sep_05_1736,reactive_intentional_encoding_looped,3.2.4,59.727416378634096,
,,,,,,,,,,,,,,,,,,,,,,,,,3,images/checkers_board.png,images/golden_gate_bridge_b.jpg,images/mop.png,object-scene,None,,,,,,,,,,,0,2,2,2,,,,,,,,,,,,,,,,,,,,,,,,,,,,,,,,,,,,,,,,,,,,,,,,,21.57166896702256,None,21.57166896702256,None,,,,,,,,,,,,,,,,,,,,,,,,,,,,,,,,,,,,,,,,,,,,,,,,,,,,,,,,,,,,,,,,,,,,,,,,,,,,,,,,,,,,,,,,,,,,,,,9,001,,,2020_Sep_05_1736,reactive_intentional_encoding_looped,3.2.4,59.727416378634096,
,,,,,,,,,,,,,,,,,,,,,,,,,4,images/figurine_ballerina.jpg,images/courtney_cox_c.jpg,images/pan_muffin.png,object-face,None,,,,,,,,,,,0,3,3,3,,,,,,,,,,,,,,,,,,,,,,,,,,,,,,,,,,,,,,,,,,,,,,,,,22.58879674502532,None,22.58879674502532,None,,,,,,,,,,,,,,,,,,,,,,,,,,,,,,,,,,,,,,,,,,,,,,,,,,,,,,,,,,,,,,,,,,,,,,,,,,,,,,,,,,,,,,,,,,,,,,,9,001,,,2020_Sep_05_1736,reactive_intentional_encoding_looped,3.2.4,59.727416378634096,
,,,,,,,,,,,,,,,,,,,,,,,,,5,images/flute_wooden.jpg,images/jimmy_fallon.jpg,images/mechanic.jpg,object-face,None,,,,,,,,,,,0,4,4,4,,,,,,,,,,,,,,,,,,,,,,,,,,,,,,,,,,,,,,,,,,,,,,,,,23.571703090012306,None,23.571703090012306,None,,,,,,,,,,,,,,,,,,,,,,,,,,,,,,,,,,,,,,,,,,,,,,,,,,,,,,,,,,,,,,,,,,,,,,,,,,,,,,,,,,,,,,,,,,,,,,,9,001,,,2020_Sep_05_1736,reactive_intentional_encoding_looped,3.2.4,59.727416378634096,
,,,,,,,,,,,,,,,,,,,,,,,,,6,images/fuzzydice.jpg,images/ellen_degeneres_b.jpg,images/soap.png,object-face,None,,,,,,,,,,,0,5,5,5,,,,,,,,,,,,,,,,,,,,,,,,,,,,,,,,,,,,,,,,,,,,,,,,,24.57163569101249,None,24.57163569101249,None,,,,,,,,,,,,,,,,,,,,,,,,,,,,,,,,,,,,,,,,,,,,,,,,,,,,,,,,,,,,,,,,,,,,,,,,,,,,,,,,,,,,,,,,,,,,,,,9,001,,,2020_Sep_05_1736,reactive_intentional_encoding_looped,3.2.4,59.727416378634096,
,,,,,,,,,,,,,,,,,,,,,,,,,7,images/dog_toy.png,images/queen_elizabeth_a.jpg,images/paper towel.jpg,object-face,None,,,,,,,,,,,0,6,6,6,,,,,,,,,,,,,,,,,,,,,,,,,,,,,,,,,,,,,,,,,,,,,,,,,25.570843934023287,None,25.570843934023287,None,,,,,,,,,,,,,,,,,,,,,,,,,,,,,,,,,,,,,,,,,,,,,,,,,,,,,,,,,,,,,,,,,,,,,,,,,,,,,,,,,,,,,,,,,,,,,,,9,001,,,2020_Sep_05_1736,reactive_intentional_encoding_looped,3.2.4,59.727416378634096,
,,,,,,,,,,,,,,,,,,,,,,,,,8,images/champagne.jpg,images/arches_national_park_a.jpg,images/noisemaker.jpg,object-scene,None,,,,,,,,,,,0,7,7,7,,,,,,,,,,,,,,,,,,,,,,,,,,,,,,,,,,,,,,,,,,,,,,,,,26.571481767023215,None,26.571481767023215,None,,,,,,,,,,,,,,,,,,,,,,,,,,,,,,,,,,,,,,,,,,,,,,,,,,,,,,,,,,,,,,,,,,,,,,,,,,,,,,,,,,,,,,,,,,,,,,,9,001,,,2020_Sep_05_1736,reactive_intentional_encoding_looped,3.2.4,59.727416378634096,
,,,,,,,,,,,,,,,,,,,,,,,,,9,images/fan.png,images/giza_pyramids_c.jpg,images/pencilCase.png,object-scene,None,,,,,,,,,,,0,8,8,8,,,,,,,,,,,,,,,,,,,,,,,,,,,,,,,,,,,,,,,,,,,,,,,,,27.571753940021154,None,27.571753940021154,None,,,,,,,,,,,,,,,,,,,,,,,,,,,,,,,,,,,,,,,,,,,,,,,,,,,,,,,,,,,,,,,,,,,,,,,,,,,,,,,,,,,,,,,,,,,,,,,9,001,,,2020_Sep_05_1736,reactive_intentional_encoding_looped,3.2.4,59.727416378634096,
,,,,,,,,,,,,,,,,,,,,,,,,,10,images/mannequin.jpg,images/julia_roberts_c.jpg,images/newspaper_stack.png,object-face,None,,,,,,,,,,,0,9,9,9,,,,,,,,,,,,,,,,,,,,,,,,,,,,,,,,,,,,,,,,,,,,,,,,,28.57098777202191,None,28.57098777202191,None,,,,,,,,,,,,,,,,,,,,,,,,,,,,,,,,,,,,,,,,,,,,,,,,,,,,,,,,,,,,,,,,,,,,,,,,,,,,,,,,,,,,,,,,,,,,,,,9,001,,,2020_Sep_05_1736,reactive_intentional_encoding_looped,3.2.4,59.727416378634096,
,,,,,,,,,,,,,,,,,,,,,,,,,11,images/flipflopsBlue.png,images/flatiron_building_b.jpg,images/paddle.png,object-scene,None,,,,,,,,,,,0,10,10,10,,,,,,,,,,,,,,,,,,,,,,,,,,,,,,,,,,,,,,,,,,,,,,,,,29.57151875901036,None,29.57151875901036,None,,,,,,,,,,,,,,,,,,,,,,,,,,,,,,,,,,,,,,,,,,,,,,,,,,,,,,,,,,,,,,,,,,,,,,,,,,,,,,,,,,,,,,,,,,,,,,,9,001,,,2020_Sep_05_1736,reactive_intentional_encoding_looped,3.2.4,59.727416378634096,
,,,,,,,,,,,,,,,,,,,,,,,,,12,images/bib.png,images/glacier_national_park_c.jpg,images/paintcan.jpg,object-scene,None,,,,,,,,,,,0,11,11,11,,,,,,,,,,,,,,,,,,,,,,,,,,,,,,,,,,,,,,,,,,,,,,,,,30.571072809019824,None,30.571072809019824,None,,,,,,,,,,,,,,,,,,,,,,,,,,,,,,,,,,,,,,,,,,,,,,,,,,,,,,,,,,,,,,,,,,,,,,,,,,,,,,,,,,,,,,,,,,,,,,,9,001,,,2020_Sep_05_1736,reactive_intentional_encoding_looped,3.2.4,59.727416378634096,
Great job! Now we will see how well you remember which images go together.,Press space to continue!,None,None,None,None,0.0,0.3,0.0,-0.4, , , , , ,,,,,,,,,,,,,,,,,,,,,,,,,,,,,,,0,0,0,0,,,,,,,,,,,,,,,,,,,,,,,,,,,,,,,,,,,,,,,,,,,,,,,,,31.133570082020015,None,31.133570082020015,None,31.133570082020015,None,space,3.55165724499966,31.166878213000018,None,,,,,,,,,,,,,,,,,,,,,,,,,,,,,,,,,,,,,,,,,,,,,,,,,,,,,,,,,,,,,,,,,,,,,,,,,,,,,,,,,,,,,9,001,,,2020_Sep_05_1736,reactive_intentional_encoding_looped,3.2.4,59.727416378634096,
"You will first see one image, like below. Your job is to recall the image that it was paired with when you see this image.",Press space to continue!,instruction_images/jessica_alba.jpg,None,None,None,0.0,0.3,0.0,-0.4, , , , , ,,,,,,,,,,,,,,,,,,,,,,,,,,,,,,,0,1,1,1,,,,,,,,,,,,,,,,,,,,,,,,,,,,,,,,,,,,,,,,,,,,,,,,,34.792885183007456,None,34.792885183007456,None,34.792885183007456,None,space,0.7970511960156728,34.83839611301664,None,,,,,,,,,,,,,,,,,,,,,,,,,,,,,,,,,,,,,,,,,,,,,,,,,,,,,,,,,,,,,,,,,,,,,,,,,,,,,,,,,,,,,9,001,,,2020_Sep_05_1736,reactive_intentional_encoding_looped,3.2.4,59.727416378634096,
"Here, you should recall the book.",Press space to continue!,instruction_images/jessica_alba.jpg,None,None,None,0.0,0.3,0.0,-0.4,J,K,L, , ,,,,,,,,,,,,,,,,,,,,,,,,,,,,,,,0,2,2,2,,,,,,,,,,,,,,,,,,,,,,,,,,,,,,,,,,,,,,,,,,,,,,,,,35.68854808501783,None,35.68854808501783,None,35.68854808501783,None,space,0.27111594498273917,35.721330141008366,None,,,,,,,,,,,,,,,,,,,,,,,,,,,,,,,,,,,,,,,,,,,,,,,,,,,,,,,,,,,,,,,,,,,,,,,,,,,,,,,,,,,,,9,001,,,2020_Sep_05_1736,reactive_intentional_encoding_looped,3.2.4,59.727416378634096,
"Then, you will see 3 other images and your job is to select the correct image pair. Use the keys 'J', 'K', or 'L' to indicate your choice.",Press space to continue!,instruction_images/jessica_alba.jpg,instruction_images/oldBook.png,instruction_images/alpaca_fo.jpg,instruction_images/antlers.jpg,0.0,0.3,0.0,-0.4,J,K,L, , ,,,,,,,,,,,,,,,,,,,,,,,,,,,,,,,,,,,0,0,0,0,,,,,,,,,,,,,,,,,,,,,,,,,,,,,,,,,,,,,,,,,,,,,,,,,,,,,,,36.182429474021774,None,36.182429474021774,None,space,0.8715692959958687,36.43737929800409,None,36.182429474021774,None,36.182429474021774,None,36.182429474021774,None,36.182429474021774,None,36.182429474021774,None,36.182429474021774,None,36.182429474021774,None,,,,,,,,,,,,,,,,,,,,,,,,,,,,,,,,,,,,,,,,,,,,,,,,,,,,,,,,,,,,,,,9,001,,,2020_Sep_05_1736,reactive_intentional_encoding_looped,3.2.4,59.727416378634096,
"Here, you should press 'L' because the woman, Jessica Alba, was paired with the book.",Press 'L' to continue!,None,instruction_images/oldBook.png,instruction_images/alpaca_fo.jpg,instruction_images/antlers.jpg,0.0,0.3,0.0,-0.4,J,K,L, , ,,,,,,,,,,,,,,,,,,,,,,,,,,,,,,,,,,,0,1,1,1,,,,,,,,,,,,,,,,,,,,,,,,,,,,,,,,,,,,,,,,,,,,,,,,,,,,,,,37.49964305202593,None,37.49964305202593,None,space,0.2528737909742631,37.78211949102115,None,37.49964305202593,None,37.49964305202593,None,37.49964305202593,None,37.49964305202593,None,37.49964305202593,None,37.49964305202593,None,37.49964305202593,None,,,,,,,,,,,,,,,,,,,,,,,,,,,,,,,,,,,,,,,,,,,,,,,,,,,,,,,,,,,,,,,9,001,,,2020_Sep_05_1736,reactive_intentional_encoding_looped,3.2.4,59.727416378634096,
This portion is timed. Respond quickly and think of your answer as soon as you see the first image. ,Press space to continue!,None,instruction_images/oldBook.png,instruction_images/alpaca_fo.jpg,instruction_images/antlers.jpg,0.0,0.3,0.0,-0.4,J,K,L, , ,,,,,,,,,,,,,,,,,,,,,,,,,,,,,,,,,,,0,2,2,2,,,,,,,,,,,,,,,,,,,,,,,,,,,,,,,,,,,,,,,,,,,,,,,,,,,,,,,38.19375379401026,None,38.19375379401026,None,space,0.1666242099890951,38.50035505701089,None,38.19375379401026,None,38.19375379401026,None,38.19375379401026,None,38.19375379401026,None,38.19375379401026,None,38.19375379401026,None,38.19375379401026,None,,,,,,,,,,,,,,,,,,,,,,,,,,,,,,,,,,,,,,,,,,,,,,,,,,,,,,,,,,,,,,,9,001,,,2020_Sep_05_1736,reactive_intentional_encoding_looped,3.2.4,59.727416378634096,
"These keyboard options will remain on the screen under each image as a reminder throughout the task. If you don't know the answer, take a guess.",Press space to continue!,None,instruction_images/oldBook.png,instruction_images/alpaca_fo.jpg,instruction_images/antlers.jpg,0.0,0.3,0.0,-0.4,J,K,L, , ,,,,,,,,,,,,,,,,,,,,,,,,,,,,,,,,,,,0,3,3,3,,,,,,,,,,,,,,,,,,,,,,,,,,,,,,,,,,,,,,,,,,,,,,,,,,,,,,,38.84319514801609,None,38.84319514801609,None,space,0.182083349005552,39.14985223801341,None,38.84319514801609,None,38.84319514801609,None,38.84319514801609,None,38.84319514801609,None,38.84319514801609,None,38.84319514801609,None,38.84319514801609,None,,,,,,,,,,,,,,,,,,,,,,,,,,,,,,,,,,,,,,,,,,,,,,,,,,,,,,,,,,,,,,,9,001,,,2020_Sep_05_1736,reactive_intentional_encoding_looped,3.2.4,59.727416378634096,
"First, we'll do a practice. Put your right hand on the keyboard and get ready to respond! When you're ready to start, press space.",Press space to continue!,None,instruction_images/oldBook.png,instruction_images/alpaca_fo.jpg,instruction_images/antlers.jpg,0.0,0.3,0.0,-0.4, , , , , ,,,,,,,,,,,,,,,,,,,,,,,,,,,,,,,,,,,0,4,4,4,,,,,,,,,,,,,,,,,,,,,,,,,,,,,,,,,,,,,,,,,,,,,,,,,,,,,,,39.53258222001023,None,39.53258222001023,None,space,0.16524015201139264,39.833691960026044,None,39.53258222001023,None,39.53258222001023,None,39.53258222001023,None,39.53258222001023,None,39.53258222001023,None,39.53258222001023,None,39.53258222001023,None,,,,,,,,,,,,,,,,,,,,,,,,,,,,,,,,,,,,,,,,,,,,,,,,,,,,,,,,,,,,,,,9,001,,,2020_Sep_05_1736,reactive_intentional_encoding_looped,3.2.4,59.727416378634096,
,,,,,,,,,,,,,,,2,images/globe.png,images/earrings_dangling.jpg,object-scene,images/wrigley_field_b.jpg,images/barrel.jpg,images/wrigley_field_b.jpg,0,0,practice,,,,,,,,,,,,,,,,,,,,,,,,,,,,,0,0,0,1,,,,,,,,,,,,,,,,,,,,,,,,,,,,,,,,,,,,,,,,,,,,,,,,,,,,,,,,,,,,,,,,,,,,,,,,,41.15486194100231,43.15512334302184,43.15512334302184,43.654886445001466,43.654886445001466,46.654638645006344,43.654886445001466,46.654638645006344,43.654886445001466,46.654638645006344,43.654886445001466,46.654638645006344,43.654886445001466,46.654638645006344,43.654886445001466,46.654638645006344,43.654886445001466,46.654638645006344,46.654638645006344,47.15486728702672,47.15486728702672,None,47.15486728702672,None,41.15486194100231,43.15512334302184,47.15486728702672,None,,,,,,,,,,,,,,,,,,,,,,,,,,,,,,,,,,,9,001,,,2020_Sep_05_1736,reactive_intentional_encoding_looped,3.2.4,59.727416378634096,
,,,,,,,,,,,,,,,3,images/glassBall.jpg,images/westminster_abbey_a.jpg,object-scene,images/beetle.png,images/statue_of_liberty.jpg,images/westminster_abbey_a.jpg,0,0,practice,,,,,,,,,,,,,,,,,,,,,,,,,,,,,0,1,1,2,,,,,,,,,,,,,,,,,,,,,,,,,,,,,,,,,,,,,,,,,,,,,,,,,,,,,,,,,,,,,,,,,,,,,,,,,51.17109275300754,53.17105328902835,53.17105328902835,53.67091308001545,53.67091308001545,56.67097233302775,53.67091308001545,56.67097233302775,53.67091308001545,56.67097233302775,53.67091308001545,56.67097233302775,53.67091308001545,56.67097233302775,53.67091308001545,56.67097233302775,53.67091308001545,56.67097233302775,56.67097233302775,57.17139215901261,57.17139215901261,None,57.17139215901261,None,51.17109275300754,53.17105328902835,57.17139215901261,None,,,,,,,,,,,,,,,,,,,,,,,,,,,,,,,,,,,9,001,,,2020_Sep_05_1736,reactive_intentional_encoding_looped,3.2.4,59.727416378634096,
,,,,,,,,,,,,,,,5,images/helicopter.jpg,images/bench_park.png,object-face,images/bird_parrot.png,images/julia_louis_dreyfus.jpg,images/julia_louis_dreyfus.jpg,0,0,practice,,,,,,,,,,,,,,,,,,,,,,,,,,,,,0,2,2,4,,,,,,,,,,,,,,,,,,,,,,,,,,,,,,,,,,,,,,,,,,,,,,,,,,,,,,,,,,,,,,,,,,,,,,,,,61.171555255015846,63.17155074200127,63.17155074200127,63.6712185460201,63.6712185460201,66.67097599702538,63.6712185460201,66.67097599702538,63.6712185460201,66.67097599702538,63.6712185460201,66.67097599702538,63.6712185460201,66.67097599702538,63.6712185460201,66.67097599702538,63.6712185460201,66.67097599702538,66.67097599702538,67.171510959015,67.171510959015,None,67.171510959015,None,61.171555255015846,63.17155074200127,67.171510959015,None,,,,,,,,,,,,,,,,,,,,,,,,,,,,,,,,,,,9,001,,,2020_Sep_05_1736,reactive_intentional_encoding_looped,3.2.4,59.727416378634096,
,,,,,,,,,,,,,,,4,images/gazebo_wooden.png,images/ray_romano.jpg,object-face,images/john_stamos.jpg,images/natalie_portman.jpg,images/natalie_portman.jpg,0,0,practice,,,,,,,,,,,,,,,,,,,,,,,,,,,,,0,3,3,3,,,,,,,,,,,,,,,,,,,,,,,,,,,,,,,,,,,,,,,,,,,,,,,,,,,,,,,,,,,,,,,,,,,,,,,,,71.15441705501871,73.15471011601039,73.15471011601039,73.65472699701786,73.65472699701786,76.65467913501197,73.65472699701786,76.65467913501197,73.65472699701786,76.65467913501197,73.65472699701786,76.65467913501197,73.65472699701786,76.65467913501197,73.65472699701786,76.65467913501197,73.65472699701786,76.65467913501197,76.65467913501197,77.17093953801668,77.15455807701801,None,77.15455807701801,None,71.15441705501871,73.15471011601039,77.15455807701801,None,,,,,,,,,,,,,,,,,,,,,,,,,,,,,,,,,,,9,001,,,2020_Sep_05_1736,reactive_intentional_encoding_looped,3.2.4,59.727416378634096,
,,,,,,,,,,,,,,,1,images/giftbow01.png,images/willie_nelson_b.jpg,object-face,images/electricoutlet.png,images/chick.jpg,images/willie_nelson_b.jpg,0,0,practice,,,,,,,,,,,,,,,,,,,,,,,,,,,,,0,4,4,0,,,,,,,,,,,,,,,,,,,,,,,,,,,,,,,,,,,,,,,,,,,,,,,,,,,,,,,,,,,,,,,,,,,,,,,,,81.15464138402604,83.15458145501907,83.15458145501907,83.65429641102673,83.65429641102673,86.65458147000754,83.65429641102673,86.65458147000754,83.65429641102673,86.65458147000754,83.65429641102673,86.65458147000754,83.65429641102673,86.65458147000754,83.65429641102673,86.65458147000754,83.65429641102673,86.65458147000754,86.65458147000754,87.15447770702303,87.15447770702303,None,87.15447770702303,None,81.15464138402604,83.15458145501907,87.15447770702303,None,,,,,,,,,,,,,,,,,,,,,,,,,,,,,,,,,,,9,001,,,2020_Sep_05_1736,reactive_intentional_encoding_looped,3.2.4,59.727416378634096,
,,,,,,,,,,,,,,,,,,,,,,,,,,,,,,,,,,,,,,,,,,,,,,,,,,,,,,,,,,,,,,,,,,,,,,,,,,,,,,,,,,,,,,,,,,,,,,,,,,,,,,,,,,,,,,,,,,,,,,,,,,,,,,,,,,,,,,,,,,,,,,,,,,,,,,,,,,,,,90.12078401600593,None,space,2.0573117499880027,90.12078401600593,None,,,,,,,,,,,,,,,,,,,,,,,,,,,,,9,001,,,2020_Sep_05_1736,reactive_intentional_encoding_looped,3.2.4,59.727416378634096,
,,,,,,,,,,,,,,,,,images/julia_roberts_c.jpg,,images/freedom_tower_c.jpg,images/dustin_hoffman_a.jpg,images/julia_roberts_c.jpg,,,,,images/mannequin.jpg,,images/newspaper_stack.png,object-face,,1,1,,,,,,,,,,,,,,,,,,,,,,,,,0,0,0,0,,,,,,,,,,,,,,,,,,,,,,,,,,,,,,,,,,,,,,,,,,,,,,,,,,,,,,,,,,,,,,,,,,,,,,,,,,,,,,,,,,,,,,,,,,,,,,,,,,,,,,,93.22673548202147,95.22991363701294,93.22673548202147,95.22991363701294,95.22991363701294,95.80925413602381,95.77027239202289,98.77096359300776,95.77027239202289,98.77096359300776,95.77027239202289,98.77096359300776,95.77027239202289,98.77096359300776,95.77027239202289,98.77096359300776,95.77027239202289,98.77096359300776,95.77027239202289,98.77096359300776,99.22057454902097,None,99.22057454902097,None,98.75376468902687,99.253945613018,99.22057454902097,None,9,001,,,2020_Sep_05_1736,reactive_intentional_encoding_looped,3.2.4,59.727416378634096,
,,,,,,,,,,,,,,,,,images/giza_pyramids_c.jpg,,images/fenway_park_a.jpg,images/dolly_parton_c.jpg,images/giza_pyramids_c.jpg,,,,,images/fan.png,,images/pencilCase.png,object-scene,,2,2,,,,,,,,,,,,,,,,,,,,,,,,,0,1,1,1,,,,,,,,,,,,,,,,,,,,,,,,,,,,,,,,,,,,,,,,,,,,,,,,,,,,,,,,,,,,,,,,,,,,,,,,,,,,,,,,,,,,,,,,,,,,,,,,,,,,,,,102.23236022202764,104.23751225802698,102.23236022202764,104.23751225802698,104.23751225802698,104.79805223000585,104.75802572999964,107.75870734700584,104.75802572999964,107.75870734700584,104.75802572999964,107.75870734700584,104.75802572999964,107.75870734700584,104.75802572999964,107.75870734700584,104.75802572999964,107.75870734700584,104.75802572999964,107.75870734700584,108.2210096300114,None,108.2210096300114,None,107.7448557090247,108.25425926101161,108.2210096300114,None,9,001,,,2020_Sep_05_1736,reactive_intentional_encoding_looped,3.2.4,59.727416378634096,
