instructions1,Instructions2,Image1,Image2,Image3,Image_4,position_1x,position_1y,position_2x,position_2y,J_key,K_key,L_key,yes_text,no_text,trial_in_list,image_a,location1,correct_category_pair,location2,location3,correct_image,List,trial_num,block,Trial,ImageA,ImageB,ImageC,CategoryB,ListNum,instruction_intentional_encoding.thisRepN,instruction_intentional_encoding.thisTrialN,instruction_intentional_encoding.thisN,instruction_intentional_encoding.thisIndex,practice_trials_intentional_encoding.thisRepN,practice_trials_intentional_encoding.thisTrialN,practice_trials_intentional_encoding.thisN,practice_trials_intentional_encoding.thisIndex,trials.thisRepN,trials.thisTrialN,trials.thisN,trials.thisIndex,trials_4.thisRepN,trials_4.thisTrialN,trials_4.thisN,trials_4.thisIndex,trials_2.thisRepN,trials_2.thisTrialN,trials_2.thisN,trials_2.thisIndex,text.started,text.stopped,instructions_text2.started,instructions_text2.stopped,response.keys,response.rt,response.started,response.stopped,image1.started,image1.stopped,image2.started,image2.stopped,J_press_instructions.started,J_press_instructions.stopped,F_key_instruct.started,F_key_instruct.stopped,arrow.started,arrow.stopped,yes_press.started,yes_press.stopped,no_press.started,no_press.stopped,imageA.started,imageA.stopped,b_image.started,b_image.stopped,text_9.started,text_9.stopped,key_resp_3.keys,key_resp_3.rt,key_resp_3.started,key_resp_3.stopped,image_pair1.started,image_pair1.stopped,image_pair2.started,image_pair2.stopped,text_3.started,text_3.stopped,text_4.started,text_4.stopped,image_3.started,image_3.stopped,key_resp.keys,key_resp.rt,key_resp.started,key_resp.stopped,text_5.started,text_5.stopped,text_8.started,text_8.stopped,key_resp_2.keys,key_resp_2.rt,key_resp_2.started,key_resp_2.stopped,image.started,image.stopped,image_2.started,image_2.stopped,image_5.started,image_5.stopped,image_6.started,image_6.stopped,K.started,K.stopped,L.started,L.stopped,J.started,J.stopped,participant,sex,age,,date,expName,psychopyVersion,frameRate,
"Welcome to the memory game! In this game, you must learn which images go together.",Press space to continue!,None,None,None,None,0.0,0.3,0.0,-0.4, , , , , ,,,,,,,,,,,,,,,,,0,0,0,0,,,,,,,,,,,,,,,,,11.672751226986293,None,11.672751226986293,None,space,1.8724160240089986,11.672751226986293,None,11.672751226986293,None,11.672751226986293,None,11.632551608985523,None,11.632551608985523,None,11.632551608985523,None,11.632551608985523,None,11.632551608985523,None,,,,,,,,,,,,,,,,,,,,,,,,,,,,,,,,,,,,,,,,,,,,,,,9,001,,,2020_Sep_05_1715,reactive_intentional_encoding_looped,3.2.4,60.35665046896081,
"You will see two images on the left and right side of the screen, like this.",Press space to continue!,instruction_images/jessica_alba.jpg,instruction_images/oldBook.png,None,None,0.0,0.3,0.0,-0.4, , , , , ,,,,,,,,,,,,,,,,,0,1,1,1,,,,,,,,,,,,,,,,,13.723748669988709,None,13.723748669988709,None,space,1.1942210289998911,13.723748669988709,None,13.723748669988709,None,13.723748669988709,None,13.582059898006264,None,13.582059898006264,None,13.582059898006264,None,13.582059898006264,None,13.582059898006264,None,,,,,,,,,,,,,,,,,,,,,,,,,,,,,,,,,,,,,,,,,,,,,,,9,001,,,2020_Sep_05_1715,reactive_intentional_encoding_looped,3.2.4,60.35665046896081,
Your job is to remember that these images go together. ,Press space to continue!,instruction_images/jessica_alba.jpg,instruction_images/oldBook.png,None,None,0.0,0.3,0.0,-0.4, , , , , ,,,,,,,,,,,,,,,,,0,2,2,2,,,,,,,,,,,,,,,,,15.031703424989246,None,15.031703424989246,None,space,1.1711208519991487,15.031703424989246,None,15.031703424989246,None,15.031703424989246,None,14.96588961800444,None,14.96588961800444,None,14.96588961800444,None,14.96588961800444,None,14.96588961800444,None,,,,,,,,,,,,,,,,,,,,,,,,,,,,,,,,,,,,,,,,,,,,,,,9,001,,,2020_Sep_05_1715,reactive_intentional_encoding_looped,3.2.4,60.35665046896081,
"You could link them through a story. For example, jessica alba likes books.",Press space to continue!,instruction_images/jessica_alba.jpg,instruction_images/oldBook.png,None,None,0.0,0.3,0.0,-0.4, , , , , ,,,,,,,,,,,,,,,,,0,3,3,3,,,,,,,,,,,,,,,,,16.319188306981232,None,16.319188306981232,None,space,1.1747883500065655,16.319188306981232,None,16.319188306981232,None,16.319188306981232,None,16.2536199449969,None,16.2536199449969,None,16.2536199449969,None,16.2536199449969,None,16.2536199449969,None,,,,,,,,,,,,,,,,,,,,,,,,,,,,,,,,,,,,,,,,,,,,,,,9,001,,,2020_Sep_05_1715,reactive_intentional_encoding_looped,3.2.4,60.35665046896081,
"After you see the images, we will test your memory.",Press space to continue!,instruction_images/jessica_alba.jpg,instruction_images/oldBook.png,None,None,0.0,0.3,0.0,-0.4, , , , , ,,,,,,,,,,,,,,,,,0,4,4,4,,,,,,,,,,,,,,,,,17.632164509996073,None,17.632164509996073,None,space,1.0785084949748125,17.632164509996073,None,17.632164509996073,None,17.632164509996073,None,17.565384549990995,None,17.565384549990995,None,17.565384549990995,None,17.565384549990995,None,17.565384549990995,None,,,,,,,,,,,,,,,,,,,,,,,,,,,,,,,,,,,,,,,,,,,,,,,9,001,,,2020_Sep_05_1715,reactive_intentional_encoding_looped,3.2.4,60.35665046896081,
"Get ready to see the images! Each pair will only last on the screen for a few seconds, so pay attention.",Press space to continue!,instruction_images/jessica_alba.jpg,instruction_images/oldBook.png,None,None,0.0,0.3,0.0,-0.4, , , , , ,,,,,,,,,,,,,,,,,0,5,5,5,,,,,,,,,,,,,,,,,18.870177871984197,None,18.870177871984197,None,space,1.0109225469932426,18.870177871984197,None,18.870177871984197,None,18.870177871984197,None,18.79785709400312,None,18.79785709400312,None,18.79785709400312,None,18.79785709400312,None,18.79785709400312,None,,,,,,,,,,,,,,,,,,,,,,,,,,,,,,,,,,,,,,,,,,,,,,,9,001,,,2020_Sep_05_1715,reactive_intentional_encoding_looped,3.2.4,60.35665046896081,
We'll first do a practice to get you familiar with the game.,Press space to continue!,instruction_images/jessica_alba.jpg,instruction_images/oldBook.png,None,None,0.0,0.3,0.0,-0.4, , , , , ,,,,,,,,,,,,,,,,,0,6,6,6,,,,,,,,,,,,,,,,,20.031201859004796,None,20.031201859004796,None,space,0.5799017440003809,20.031201859004796,None,20.031201859004796,None,20.031201859004796,None,19.964208429999417,None,19.964208429999417,None,19.964208429999417,None,19.964208429999417,None,19.964208429999417,None,,,,,,,,,,,,,,,,,,,,,,,,,,,,,,,,,,,,,,,,,,,,,,,9,001,,,2020_Sep_05_1715,reactive_intentional_encoding_looped,3.2.4,60.35665046896081,
"When you're ready to start the practice, press space!",Press space to continue!,None,None,None,None,0.0,0.0,None,None, , , , , ,,,,,,,,,,,,,,,,,0,7,7,7,,,,,,,,,,,,,,,,,20.75266438900144,None,20.75266438900144,None,space,0.8512953190074768,20.75266438900144,None,20.75266438900144,None,20.75266438900144,None,20.69091681498685,None,20.69091681498685,None,20.69091681498685,None,20.69091681498685,None,20.69091681498685,None,,,,,,,,,,,,,,,,,,,,,,,,,,,,,,,,,,,,,,,,,,,,,,,9,001,,,2020_Sep_05_1715,reactive_intentional_encoding_looped,3.2.4,60.35665046896081,
,,,,,,,,,,,,,,,1,images/giftbow01.png,images/willie_nelson_b.jpg,object-face,images/electricoutlet.png,images/chick.jpg,images/willie_nelson_b.jpg,0,0,practice,,,,,,,,,,,0,0,0,0,,,,,,,,,,,,,,,,,,,,,,,,,,,,,,,,,,,21.69001854598173,None,21.69001854598173,None,,,,,,,,,,,,,,,,,,,,,,,,,,,,,,,,,,,,,,,,,,,9,001,,,2020_Sep_05_1715,reactive_intentional_encoding_looped,3.2.4,60.35665046896081,
,,,,,,,,,,,,,,,2,images/globe.png,images/earrings_dangling.jpg,object-scene,images/wrigley_field_b.jpg,images/barrel.jpg,images/wrigley_field_b.jpg,0,0,practice,,,,,,,,,,,0,1,1,1,,,,,,,,,,,,,,,,,,,,,,,,,,,,,,,,,,,21.855891900981078,None,21.855891900981078,None,,,,,,,,,,,,,,,,,,,,,,,,,,,,,,,,,,,,,,,,,,,9,001,,,2020_Sep_05_1715,reactive_intentional_encoding_looped,3.2.4,60.35665046896081,
,,,,,,,,,,,,,,,3,images/glassBall.jpg,images/westminster_abbey_a.jpg,object-scene,images/beetle.png,images/statue_of_liberty.jpg,images/westminster_abbey_a.jpg,0,0,practice,,,,,,,,,,,0,2,2,2,,,,,,,,,,,,,,,,,,,,,,,,,,,,,,,,,,,21.941045658983057,None,21.941045658983057,None,,,,,,,,,,,,,,,,,,,,,,,,,,,,,,,,,,,,,,,,,,,9,001,,,2020_Sep_05_1715,reactive_intentional_encoding_looped,3.2.4,60.35665046896081,
,,,,,,,,,,,,,,,4,images/gazebo_wooden.png,images/ray_romano.jpg,object-face,images/john_stamos.jpg,images/natalie_portman.jpg,images/natalie_portman.jpg,0,0,practice,,,,,,,,,,,0,3,3,3,,,,,,,,,,,,,,,,,,,,,,,,,,,,,,,,,,,None,None,None,None,,,,,,,,,,,,,,,,,,,,,,,,,,,,,,,,,,,,,,,,,,,9,001,,,2020_Sep_05_1715,reactive_intentional_encoding_looped,3.2.4,60.35665046896081,
,,,,,,,,,,,,,,,5,images/helicopter.jpg,images/bench_park.png,object-face,images/bird_parrot.png,images/julia_louis_dreyfus.jpg,images/julia_louis_dreyfus.jpg,0,0,practice,,,,,,,,,,,0,4,4,4,,,,,,,,,,,,,,,,,,,,,,,,,,,,,,,,,,,22.114216071000556,None,22.114216071000556,None,,,,,,,,,,,,,,,,,,,,,,,,,,,,,,,,,,,,,,,,,,,9,001,,,2020_Sep_05_1715,reactive_intentional_encoding_looped,3.2.4,60.35665046896081,
,,,,,,,,,,,,,,,,,,,,,,,,,,,,,,,,,,,,,,,,,,,,,,,,,,,,,,,,,,,,,,,,,,,,,,,,,,,,,22.1552057749941,None,space,4.138961088989163,22.63161352998577,None,,,,,,,,,,,,,,,,,,,,,,,,,,,,,,,,,,,,,9,001,,,2020_Sep_05_1715,reactive_intentional_encoding_looped,3.2.4,60.35665046896081,
,,,,,,,,,,,,,,,,,,,,,,,,,1,images/sundae_banana.jpg,images/eiffel_tower_c.jpg,images/mitten.png,object-scene,None,,,,,,,,,0,0,0,0,,,,,,,,,,,,,,,,,,,,,,,,,,,,,,,,,,,,,,,,,27.58171760800178,None,27.58171760800178,None,,,,,,,,,,,,,,,,,,,,,,,,,,,,,,,,,9,001,,,2020_Sep_05_1715,reactive_intentional_encoding_looped,3.2.4,60.35665046896081,
,,,,,,,,,,,,,,,,,,,,,,,,,2,images/castle_sand.png,images/gwen_stefani_c.jpg,images/mask_hockeygoalie.png,object-face,None,,,,,,,,,0,1,1,1,,,,,,,,,,,,,,,,,,,,,,,,,,,,,,,,,,,,,,,,,28.315309334982885,None,28.315309334982885,None,,,,,,,,,,,,,,,,,,,,,,,,,,,,,,,,,9,001,,,2020_Sep_05_1715,reactive_intentional_encoding_looped,3.2.4,60.35665046896081,
,,,,,,,,,,,,,,,,,,,,,,,,,3,images/checkers_board.png,images/golden_gate_bridge_b.jpg,images/mop.png,object-scene,None,,,,,,,,,0,2,2,2,,,,,,,,,,,,,,,,,,,,,,,,,,,,,,,,,,,,,,,,,29.33144596699276,None,29.33144596699276,None,,,,,,,,,,,,,,,,,,,,,,,,,,,,,,,,,9,001,,,2020_Sep_05_1715,reactive_intentional_encoding_looped,3.2.4,60.35665046896081,
,,,,,,,,,,,,,,,,,,,,,,,,,4,images/figurine_ballerina.jpg,images/courtney_cox_c.jpg,images/pan_muffin.png,object-face,None,,,,,,,,,0,3,3,3,,,,,,,,,,,,,,,,,,,,,,,,,,,,,,,,,,,,,,,,,30.34824898498482,None,30.34824898498482,None,,,,,,,,,,,,,,,,,,,,,,,,,,,,,,,,,9,001,,,2020_Sep_05_1715,reactive_intentional_encoding_looped,3.2.4,60.35665046896081,
,,,,,,,,,,,,,,,,,,,,,,,,,5,images/flute_wooden.jpg,images/jimmy_fallon.jpg,images/mechanic.jpg,object-face,None,,,,,,,,,0,4,4,4,,,,,,,,,,,,,,,,,,,,,,,,,,,,,,,,,,,,,,,,,31.347970676986733,None,31.347970676986733,None,,,,,,,,,,,,,,,,,,,,,,,,,,,,,,,,,9,001,,,2020_Sep_05_1715,reactive_intentional_encoding_looped,3.2.4,60.35665046896081,
,,,,,,,,,,,,,,,,,,,,,,,,,6,images/fuzzydice.jpg,images/ellen_degeneres_b.jpg,images/soap.png,object-face,None,,,,,,,,,0,5,5,5,,,,,,,,,,,,,,,,,,,,,,,,,,,,,,,,,,,,,,,,,32.33189124899218,None,32.33189124899218,None,,,,,,,,,,,,,,,,,,,,,,,,,,,,,,,,,9,001,,,2020_Sep_05_1715,reactive_intentional_encoding_looped,3.2.4,60.35665046896081,
,,,,,,,,,,,,,,,,,,,,,,,,,7,images/dog_toy.png,images/queen_elizabeth_a.jpg,images/paper towel.jpg,object-face,None,,,,,,,,,0,6,6,6,,,,,,,,,,,,,,,,,,,,,,,,,,,,,,,,,,,,,,,,,33.33173879800597,None,33.33173879800597,None,,,,,,,,,,,,,,,,,,,,,,,,,,,,,,,,,9,001,,,2020_Sep_05_1715,reactive_intentional_encoding_looped,3.2.4,60.35665046896081,
,,,,,,,,,,,,,,,,,,,,,,,,,8,images/champagne.jpg,images/arches_national_park_a.jpg,images/noisemaker.jpg,object-scene,None,,,,,,,,,0,7,7,7,,,,,,,,,,,,,,,,,,,,,,,,,,,,,,,,,,,,,,,,,34.31410252698697,None,34.31410252698697,None,,,,,,,,,,,,,,,,,,,,,,,,,,,,,,,,,9,001,,,2020_Sep_05_1715,reactive_intentional_encoding_looped,3.2.4,60.35665046896081,
,,,,,,,,,,,,,,,,,,,,,,,,,9,images/fan.png,images/giza_pyramids_c.jpg,images/pencilCase.png,object-scene,None,,,,,,,,,0,8,8,8,,,,,,,,,,,,,,,,,,,,,,,,,,,,,,,,,,,,,,,,,35.315047051990405,None,35.315047051990405,None,,,,,,,,,,,,,,,,,,,,,,,,,,,,,,,,,9,001,,,2020_Sep_05_1715,reactive_intentional_encoding_looped,3.2.4,60.35665046896081,
,,,,,,,,,,,,,,,,,,,,,,,,,10,images/mannequin.jpg,images/julia_roberts_c.jpg,images/newspaper_stack.png,object-face,None,,,,,,,,,0,9,9,9,,,,,,,,,,,,,,,,,,,,,,,,,,,,,,,,,,,,,,,,,36.314110307983356,None,36.314110307983356,None,,,,,,,,,,,,,,,,,,,,,,,,,,,,,,,,,9,001,,,2020_Sep_05_1715,reactive_intentional_encoding_looped,3.2.4,60.35665046896081,
,,,,,,,,,,,,,,,,,,,,,,,,,11,images/flipflopsBlue.png,images/flatiron_building_b.jpg,images/paddle.png,object-scene,None,,,,,,,,,0,10,10,10,,,,,,,,,,,,,,,,,,,,,,,,,,,,,,,,,,,,,,,,,37.33181260700803,None,37.33181260700803,None,,,,,,,,,,,,,,,,,,,,,,,,,,,,,,,,,9,001,,,2020_Sep_05_1715,reactive_intentional_encoding_looped,3.2.4,60.35665046896081,
,,,,,,,,,,,,,,,,,,,,,,,,,12,images/bib.png,images/glacier_national_park_c.jpg,images/paintcan.jpg,object-scene,None,,,,,,,,,0,11,11,11,,,,,,,,,,,,,,,,,,,,,,,,,,,,,,,,,,,,,,,,,38.33093455500784,None,38.33093455500784,None,,,,,,,,,,,,,,,,,,,,,,,,,,,,,,,,,9,001,,,2020_Sep_05_1715,reactive_intentional_encoding_looped,3.2.4,60.35665046896081,
Great job! Now we will see how well you remember which images go together.,Press space to continue!,None,None,None,None,0.0,0.3,0.0,-0.4, , , , , ,,,,,,,,,,,,,,,,,,,,,,,,,,,,,0,0,0,0,,,,,,,,,,,,,,,,,,,,,,,,,,,,,,,,,,,,,,,,,38.8980582600052,None,38.8980582600052,None,38.8980582600052,None,space,5.511062598001445,38.93734442000277,None,,,,,,,,,,,,,,,,,,,,,,,9,001,,,2020_Sep_05_1715,reactive_intentional_encoding_looped,3.2.4,60.35665046896081,
"You will first see one image, like below. Your job is to recall the image that it was paired with when you see this image.",Press space to continue!,instruction_images/jessica_alba.jpg,None,None,None,0.0,0.3,0.0,-0.4, , , , , ,,,,,,,,,,,,,,,,,,,,,,,,,,,,,0,1,1,1,,,,,,,,,,,,,,,,,,,,,,,,,,,,,,,,,,,,,,,,,44.51464161698823,None,44.51464161698823,None,44.51464161698823,None,space,6.075717546016676,44.56459230699693,None,,,,,,,,,,,,,,,,,,,,,,,9,001,,,2020_Sep_05_1715,reactive_intentional_encoding_looped,3.2.4,60.35665046896081,
"Here, you should recall the book.",Press space to continue!,instruction_images/jessica_alba.jpg,None,None,None,0.0,0.3,0.0,-0.4,J,K,L, , ,,,,,,,,,,,,,,,,,,,,,,,,,,,,,0,2,2,2,,,,,,,,,,,,,,,,,,,,,,,,,,,,,,,,,,,,,,,,,50.698738968989346,None,50.698738968989346,None,50.698738968989346,None,space,0.7852708130085375,50.731809076998616,None,,,,,,,,,,,,,,,,,,,,,,,9,001,,,2020_Sep_05_1715,reactive_intentional_encoding_looped,3.2.4,60.35665046896081,
"Then, you will see 3 other images and your job is to select the correct image pair. Use the keys 'J', 'K', or 'L' to indicate your choice.",Press space to continue!,instruction_images/jessica_alba.jpg,instruction_images/oldBook.png,instruction_images/alpaca_fo.jpg,instruction_images/antlers.jpg,0.0,0.3,0.0,-0.4,J,K,L, , ,,,,,,,,,,,,,,,,,,,,,,,,,,,,,,,,,0,0,0,0,,,,,,,,,,,,,,,,,,,,,,,,,,,,,,,,,,,,,,,,,,,,,,,51.76487518000067,None,51.76487518000067,None,space,3.113708646997111,51.93920669899671,None,51.76487518000067,None,51.76487518000067,None,51.76487518000067,None,51.76487518000067,None,51.76487518000067,None,51.76487518000067,None,51.76487518000067,None,9,001,,,2020_Sep_05_1715,reactive_intentional_encoding_looped,3.2.4,60.35665046896081,
"Here, you should press 'L' because the woman, Jessica Alba, was paired with the book.",Press 'L' to continue!,None,instruction_images/oldBook.png,instruction_images/alpaca_fo.jpg,instruction_images/antlers.jpg,0.0,0.3,0.0,-0.4,J,K,L, , ,,,,,,,,,,,,,,,,,,,,,,,,,,,,,,,,,0,1,1,1,,,,,,,,,,,,,,,,,,,,,,,,,,,,,,,,,,,,,,,,,,,,,,,55.21416507000686,None,55.21416507000686,None,l,2.3689935319998767,55.49086014300701,None,55.21416507000686,None,55.21416507000686,None,55.21416507000686,None,55.21416507000686,None,55.21416507000686,None,55.21416507000686,None,55.21416507000686,None,9,001,,,2020_Sep_05_1715,reactive_intentional_encoding_looped,3.2.4,60.35665046896081,
This portion is timed. Respond quickly and think of your answer as soon as you see the first image. ,Press space to continue!,None,instruction_images/oldBook.png,instruction_images/alpaca_fo.jpg,instruction_images/antlers.jpg,0.0,0.3,0.0,-0.4,J,K,L, , ,,,,,,,,,,,,,,,,,,,,,,,,,,,,,,,,,0,2,2,2,,,,,,,,,,,,,,,,,,,,,,,,,,,,,,,,,,,,,,,,,,,,,,,58.05227975000162,None,58.05227975000162,None,space,2.6966387560241856,58.3381252780091,None,58.05227975000162,None,58.05227975000162,None,58.05227975000162,None,58.05227975000162,None,58.05227975000162,None,58.05227975000162,None,58.05227975000162,None,9,001,,,2020_Sep_05_1715,reactive_intentional_encoding_looped,3.2.4,60.35665046896081,
"These keyboard options will remain on the screen under each image as a reminder throughout the task. If you don't know the answer, take a guess.",Press space to continue!,None,instruction_images/oldBook.png,instruction_images/alpaca_fo.jpg,instruction_images/antlers.jpg,0.0,0.3,0.0,-0.4,J,K,L, , ,,,,,,,,,,,,,,,,,,,,,,,,,,,,,,,,,0,3,3,3,,,,,,,,,,,,,,,,,,,,,,,,,,,,,,,,,,,,,,,,,,,,,,,61.2067292459833,None,61.2067292459833,None,space,2.5229970410000533,61.522625654004514,None,61.2067292459833,None,61.2067292459833,None,61.2067292459833,None,61.2067292459833,None,61.2067292459833,None,61.2067292459833,None,61.2067292459833,None,9,001,,,2020_Sep_05_1715,reactive_intentional_encoding_looped,3.2.4,60.35665046896081,
"First, we'll do a practice. Put your right hand on the keyboard and get ready to respond! When you're ready to start, press space.",Press space to continue!,None,instruction_images/oldBook.png,instruction_images/alpaca_fo.jpg,instruction_images/antlers.jpg,0.0,0.3,0.0,-0.4, , , , , ,,,,,,,,,,,,,,,,,,,,,,,,,,,,,,,,,0,4,4,4,,,,,,,,,,,,,,,,,,,,,,,,,,,,,,,,,,,,,,,,,,,,,,,64.28037162899273,None,64.28037162899273,None,space,1.4963507970096543,64.5881780369964,None,64.28037162899273,None,64.28037162899273,None,64.28037162899273,None,64.28037162899273,None,64.28037162899273,None,64.28037162899273,None,64.28037162899273,None,9,001,,,2020_Sep_05_1715,reactive_intentional_encoding_looped,3.2.4,60.35665046896081,
