instructions1,Instructions2,Image1,Image2,Image3,Image_4,position_1x,position_1y,position_2x,position_2y,J_key,K_key,L_key,trial,image_a,image_b,category_b,instruction_intentional_encoding.thisRepN,instruction_intentional_encoding.thisTrialN,instruction_intentional_encoding.thisN,instruction_intentional_encoding.thisIndex,trials.thisRepN,trials.thisTrialN,trials.thisN,trials.thisIndex,trials_2.thisRepN,trials_2.thisTrialN,trials_2.thisN,trials_2.thisIndex,trials_3.thisRepN,trials_3.thisTrialN,trials_3.thisN,trials_3.thisIndex,image_correct,image_alternative1,image_alternative2,text.started,text.stopped,instructions_text2.started,instructions_text2.stopped,response.keys,response.rt,response.started,response.stopped,image1.started,image1.stopped,image2.started,image2.stopped,a_image.started,a_image.stopped,b_image.started,b_image.stopped,text_12.started,text_12.stopped,text_5.started,text_5.stopped,text_8.started,text_8.stopped,key_resp_2.keys,key_resp_2.rt,key_resp_2.started,key_resp_2.stopped,image.started,image.stopped,image_2.started,image_2.stopped,image_5.started,image_5.stopped,image_6.started,image_6.stopped,J.started,J.stopped,K.started,K.stopped,L.started,L.stopped,participant,sex,age,,date,expName,psychopyVersion,frameRate,
Welcome to the memory experiment!,Press space to continue!,None,None,None,None,0,0.3,0.0,-0.4,None,None,None,,,,,0,0,0,0,,,,,,,,,,,,,,,,7.555560477005201,None,7.555560477005201,None,space,0.6842643660056638,7.555560477005201,None,7.555560477005201,None,7.555560477005201,None,,,,,,,,,,,,,,,,,,,,,,,,,,,,,,001,,,2020_Jun_02_2253,reactive_intentional_encoding_looped,3.2.4,59.987748702722996,
"On each trial of this task, you will see two images on the left and right side of the computer screen, like below.",Press space to continue!,instruction_images/jessica_alba.jpg,instruction_images/oldBook.png,None,None,0,0.3,0.0,-0.4,None,None,None,,,,,0,1,1,1,,,,,,,,,,,,,,,,8.536368497996591,None,8.536368497996591,None,space,3.8175392509874655,8.536368497996591,None,8.536368497996591,None,8.536368497996591,None,,,,,,,,,,,,,,,,,,,,,,,,,,,,,,001,,,2020_Jun_02_2253,reactive_intentional_encoding_looped,3.2.4,59.987748702722996,
Your job is to memorize that the image pairs go together. You can use any strategy to remember them.,Press space to continue!,instruction_images/jessica_alba.jpg,instruction_images/oldBook.png,None,None,0,0.3,0.0,-0.4,None,None,None,,,,,0,2,2,2,,,,,,,,,,,,,,,,12.519334797994816,None,12.519334797994816,None,space,0.3835076770046726,12.519334797994816,None,12.519334797994816,None,12.519334797994816,None,,,,,,,,,,,,,,,,,,,,,,,,,,,,,,001,,,2020_Jun_02_2253,reactive_intentional_encoding_looped,3.2.4,59.987748702722996,
"For example, you could rehearse them in your memory, or link them through a story.",Press space to continue!,instruction_images/jessica_alba.jpg,instruction_images/oldBook.png,None,None,0,0.3,0.0,-0.4,None,None,None,,,,,0,3,3,3,,,,,,,,,,,,,,,,13.038703869999154,None,13.038703869999154,None,space,0.29908063101174776,13.038703869999154,None,13.038703869999154,None,13.038703869999154,None,,,,,,,,,,,,,,,,,,,,,,,,,,,,,,001,,,2020_Jun_02_2253,reactive_intentional_encoding_looped,3.2.4,59.987748702722996,
It's important that you remember that these images go together. Your memory will later be tested. ,Press space to continue!,instruction_images/jessica_alba.jpg,instruction_images/oldBook.png,None,None,0,0.3,0.0,-0.4,None,None,None,,,,,0,4,4,4,,,,,,,,,,,,,,,,13.485893571007182,None,13.485893571007182,None,space,0.2581468110001879,13.485893571007182,None,13.485893571007182,None,13.485893571007182,None,,,,,,,,,,,,,,,,,,,,,,,,,,,,,,001,,,2020_Jun_02_2253,reactive_intentional_encoding_looped,3.2.4,59.987748702722996,
Get ready to see a series of image pairs! ,Press space to continue!,instruction_images/jessica_alba.jpg,instruction_images/oldBook.png,None,None,0,0.3,0.0,-0.4,None,None,None,,,,,0,5,5,5,,,,,,,,,,,,,,,,13.869168342993362,None,13.869168342993362,None,space,0.847607881994918,13.869168342993362,None,13.869168342993362,None,13.869168342993362,None,,,,,,,,,,,,,,,,,,,,,,,,,,,,,,001,,,2020_Jun_02_2253,reactive_intentional_encoding_looped,3.2.4,59.987748702722996,
"Each pair of images will only last on the screen for a few sceonds, so pay attention!",Press space to continue!,instruction_images/jessica_alba.jpg,instruction_images/oldBook.png,None,None,0,0.3,0.0,-0.4,None,None,None,,,,,0,6,6,6,,,,,,,,,,,,,,,,14.869869158996153,None,14.869869158996153,None,space,0.771830747005879,14.869869158996153,None,14.869869158996153,None,14.869869158996153,None,,,,,,,,,,,,,,,,,,,,,,,,,,,,,,001,,,2020_Jun_02_2253,reactive_intentional_encoding_looped,3.2.4,59.987748702722996,
"When you're ready to start the game, press space!",None,None,None,None,None,0,0.0,None,None,None,None,None,,,,,0,7,7,7,,,,,,,,,,,,,,,,15.768486588000087,None,15.768486588000087,None,space,0.6813293500017608,15.768486588000087,None,15.768486588000087,None,15.768486588000087,None,,,,,,,,,,,,,,,,,,,,,,,,,,,,,,001,,,2020_Jun_02_2253,reactive_intentional_encoding_looped,3.2.4,59.987748702722996,
,,,,,,,,,,,,,1,images/flipflopsBlue.png,images/amy_poehler_c.jpg,face,,,,,0,0,0,0,,,,,,,,,,,,,,,,,,,,,,,,16.569174591000774,None,16.569174591000774,None,16.569174591000774,None,,,,,,,,,,,,,,,,,,,,,,,,001,,,2020_Jun_02_2253,reactive_intentional_encoding_looped,3.2.4,59.987748702722996,
,,,,,,,,,,,,,2,images/bag_gift.png,images/bill_gates_a.jpg,face,,,,,0,1,1,1,,,,,,,,,,,,,,,,,,,,,,,,16.685494215998915,None,16.685494215998915,None,16.685494215998915,None,,,,,,,,,,,,,,,,,,,,,,,,001,,,2020_Jun_02_2253,reactive_intentional_encoding_looped,3.2.4,59.987748702722996,
,,,,,,,,,,,,,3,images/ball_8.png,images/courtney_cox_c.jpg,face,,,,,0,2,2,2,,,,,,,,,,,,,,,,,,,,,,,,16.768837430005078,None,16.768837430005078,None,16.768837430005078,None,,,,,,,,,,,,,,,,,,,,,,,,001,,,2020_Jun_02_2253,reactive_intentional_encoding_looped,3.2.4,59.987748702722996,
,,,,,,,,,,,,,4,images/ball_baseball.png,images/dakota_fanning_c.jpg,face,,,,,0,3,3,3,,,,,,,,,,,,,,,,,,,,,,,,16.852979304996552,None,16.852979304996552,None,16.852979304996552,None,,,,,,,,,,,,,,,,,,,,,,,,001,,,2020_Jun_02_2253,reactive_intentional_encoding_looped,3.2.4,59.987748702722996,
,,,,,,,,,,,,,5,images/balloon.jpg,images/drew_barrymore_c.jpg,face,,,,,0,4,4,4,,,,,,,,,,,,,,,,,,,,,,,,16.94159703599871,None,16.94159703599871,None,16.94159703599871,None,,,,,,,,,,,,,,,,,,,,,,,,001,,,2020_Jun_02_2253,reactive_intentional_encoding_looped,3.2.4,59.987748702722996,
,,,,,,,,,,,,,6,images/bandage.jpg,images/ellen_degeneres_b.jpg,face,,,,,0,5,5,5,,,,,,,,,,,,,,,,,,,,,,,,17.044888392003486,None,17.044888392003486,None,17.044888392003486,None,,,,,,,,,,,,,,,,,,,,,,,,001,,,2020_Jun_02_2253,reactive_intentional_encoding_looped,3.2.4,59.987748702722996,
,,,,,,,,,,,,,7,images/barrel.jpg,images/emma_stone.jpg,face,,,,,0,6,6,6,,,,,,,,,,,,,,,,,,,,,,,,17.159015839002677,None,17.159015839002677,None,17.159015839002677,None,,,,,,,,,,,,,,,,,,,,,,,,001,,,2020_Jun_02_2253,reactive_intentional_encoding_looped,3.2.4,59.987748702722996,
,,,,,,,,,,,,,8,images/bathrobe.png,images/emma_watson.jpg,face,,,,,0,7,7,7,,,,,,,,,,,,,,,,,,,,,,,,17.236964327006717,None,17.236964327006717,None,17.236964327006717,None,,,,,,,,,,,,,,,,,,,,,,,,001,,,2020_Jun_02_2253,reactive_intentional_encoding_looped,3.2.4,59.987748702722996,
,,,,,,,,,,,,,9,images/beetle.png,images/george_clooney_a.jpg,face,,,,,0,8,8,8,,,,,,,,,,,,,,,,,,,,,,,,17.319454034994124,None,17.319454034994124,None,17.319454034994124,None,,,,,,,,,,,,,,,,,,,,,,,,001,,,2020_Jun_02_2253,reactive_intentional_encoding_looped,3.2.4,59.987748702722996,
,,,,,,,,,,,,,10,images/bench_park.png,images/gwen_stefani_c.jpg,face,,,,,0,9,9,9,,,,,,,,,,,,,,,,,,,,,,,,17.45832801000506,None,17.45832801000506,None,17.45832801000506,None,,,,,,,,,,,,,,,,,,,,,,,,001,,,2020_Jun_02_2253,reactive_intentional_encoding_looped,3.2.4,59.987748702722996,
,,,,,,,,,,,,,11,images/bib.png,images/hillary_clinton_a.jpg,face,,,,,0,10,10,10,,,,,,,,,,,,,,,,,,,,,,,,17.55789676999848,None,17.55789676999848,None,17.55789676999848,None,,,,,,,,,,,,,,,,,,,,,,,,001,,,2020_Jun_02_2253,reactive_intentional_encoding_looped,3.2.4,59.987748702722996,
,,,,,,,,,,,,,12,images/bird_parrot.png,images/jackie_kennedy_a.jpg,face,,,,,0,11,11,11,,,,,,,,,,,,,,,,,,,,,,,,17.657111212000018,None,17.657111212000018,None,17.657111212000018,None,,,,,,,,,,,,,,,,,,,,,,,,001,,,2020_Jun_02_2253,reactive_intentional_encoding_looped,3.2.4,59.987748702722996,
,,,,,,,,,,,,,1,images/flipflopsBlue.png,images/amy_poehler_c.jpg,face,,,,,1,0,12,0,,,,,,,,,,,,,,,,,,,,,,,,17.719378813999356,None,17.719378813999356,None,17.719378813999356,None,,,,,,,,,,,,,,,,,,,,,,,,001,,,2020_Jun_02_2253,reactive_intentional_encoding_looped,3.2.4,59.987748702722996,
,,,,,,,,,,,,,2,images/bag_gift.png,images/bill_gates_a.jpg,face,,,,,1,1,13,1,,,,,,,,,,,,,,,,,,,,,,,,17.83519917099329,None,17.83519917099329,None,17.83519917099329,None,,,,,,,,,,,,,,,,,,,,,,,,001,,,2020_Jun_02_2253,reactive_intentional_encoding_looped,3.2.4,59.987748702722996,
,,,,,,,,,,,,,3,images/ball_8.png,images/courtney_cox_c.jpg,face,,,,,1,2,14,2,,,,,,,,,,,,,,,,,,,,,,,,17.927345785996295,None,17.927345785996295,None,17.927345785996295,None,,,,,,,,,,,,,,,,,,,,,,,,001,,,2020_Jun_02_2253,reactive_intentional_encoding_looped,3.2.4,59.987748702722996,
,,,,,,,,,,,,,4,images/ball_baseball.png,images/dakota_fanning_c.jpg,face,,,,,1,3,15,3,,,,,,,,,,,,,,,,,,,,,,,,18.041304119004053,None,18.041304119004053,None,18.041304119004053,None,,,,,,,,,,,,,,,,,,,,,,,,001,,,2020_Jun_02_2253,reactive_intentional_encoding_looped,3.2.4,59.987748702722996,
,,,,,,,,,,,,,5,images/balloon.jpg,images/drew_barrymore_c.jpg,face,,,,,1,4,16,4,,,,,,,,,,,,,,,,,,,,,,,,18.14098992399522,None,18.14098992399522,None,18.14098992399522,None,,,,,,,,,,,,,,,,,,,,,,,,001,,,2020_Jun_02_2253,reactive_intentional_encoding_looped,3.2.4,59.987748702722996,
,,,,,,,,,,,,,6,images/bandage.jpg,images/ellen_degeneres_b.jpg,face,,,,,1,5,17,5,,,,,,,,,,,,,,,,,,,,,,,,18.229560673993547,None,18.229560673993547,None,18.229560673993547,None,,,,,,,,,,,,,,,,,,,,,,,,001,,,2020_Jun_02_2253,reactive_intentional_encoding_looped,3.2.4,59.987748702722996,
,,,,,,,,,,,,,7,images/barrel.jpg,images/emma_stone.jpg,face,,,,,1,6,18,6,,,,,,,,,,,,,,,,,,,,,,,,18.35221210900636,None,18.35221210900636,None,18.35221210900636,None,,,,,,,,,,,,,,,,,,,,,,,,001,,,2020_Jun_02_2253,reactive_intentional_encoding_looped,3.2.4,59.987748702722996,
,,,,,,,,,,,,,8,images/bathrobe.png,images/emma_watson.jpg,face,,,,,1,7,19,7,,,,,,,,,,,,,,,,,,,,,,,,18.438996672994108,None,18.438996672994108,None,18.438996672994108,None,,,,,,,,,,,,,,,,,,,,,,,,001,,,2020_Jun_02_2253,reactive_intentional_encoding_looped,3.2.4,59.987748702722996,
,,,,,,,,,,,,,9,images/beetle.png,images/george_clooney_a.jpg,face,,,,,1,8,20,8,,,,,,,,,,,,,,,,,,,,,,,,18.51102474599611,None,18.51102474599611,None,18.51102474599611,None,,,,,,,,,,,,,,,,,,,,,,,,001,,,2020_Jun_02_2253,reactive_intentional_encoding_looped,3.2.4,59.987748702722996,
,,,,,,,,,,,,,10,images/bench_park.png,images/gwen_stefani_c.jpg,face,,,,,1,9,21,9,,,,,,,,,,,,,,,,,,,,,,,,18.618537543996354,None,18.618537543996354,None,18.618537543996354,None,,,,,,,,,,,,,,,,,,,,,,,,001,,,2020_Jun_02_2253,reactive_intentional_encoding_looped,3.2.4,59.987748702722996,
,,,,,,,,,,,,,11,images/bib.png,images/hillary_clinton_a.jpg,face,,,,,1,10,22,10,,,,,,,,,,,,,,,,,,,,,,,,18.73566018299607,None,18.73566018299607,None,18.73566018299607,None,,,,,,,,,,,,,,,,,,,,,,,,001,,,2020_Jun_02_2253,reactive_intentional_encoding_looped,3.2.4,59.987748702722996,
,,,,,,,,,,,,,12,images/bird_parrot.png,images/jackie_kennedy_a.jpg,face,,,,,1,11,23,11,,,,,,,,,,,,,,,,,,,,,,,,18.825274667993654,None,18.825274667993654,None,18.825274667993654,None,,,,,,,,,,,,,,,,,,,,,,,,001,,,2020_Jun_02_2253,reactive_intentional_encoding_looped,3.2.4,59.987748702722996,
"You will first see one image on the computer screen, like below. You will be asked to bring to mind the associated image pair.",Press space to continue!,instruction_images/jessica_alba.jpg,None,None,None,0,0.3,0.0,-0.4,None,None,None,,,,,,,,,,,,,0,0,0,0,,,,,,,,,,,,,,,,,,,,,,,,,,19.00274326199724,None,19.00274326199724,None,space,14.127640416991198,19.274559844998294,None,19.00274326199724,None,19.00274326199724,None,19.00274326199724,None,19.00274326199724,None,19.00274326199724,None,19.00274326199724,None,19.00274326199724,None,,001,,,2020_Jun_02_2253,reactive_intentional_encoding_looped,3.2.4,59.987748702722996,
"In this situation, you would try to remember the book.",Press space to continue!,instruction_images/jessica_alba.jpg,None,None,None,0,0.3,0.0,-0.4,None,None,None,,,,,,,,,,,,,0,1,1,1,,,,,,,,,,,,,,,,,,,,,,,,,,33.56883665600617,None,33.56883665600617,None,space,0.33593643200583756,33.8351514399983,None,33.56883665600617,None,33.56883665600617,None,33.56883665600617,None,33.56883665600617,None,33.56883665600617,None,33.56883665600617,None,33.56883665600617,None,,001,,,2020_Jun_02_2253,reactive_intentional_encoding_looped,3.2.4,59.987748702722996,
"Immediately after, you will be shown three other images, like this. You should select the image that was previously associated with the image you just saw.",Press space to continue!,instruction_images/jessica_alba.jpg,instruction_images/oldBook.png,instruction_images/oldBook.png,instruction_images/oldBook.png,0,0.3,0.0,-0.4,J,K,L,,,,,,,,,,,,,0,2,2,2,,,,,,,,,,,,,,,,,,,,,,,,,,34.384901161000016,None,34.384901161000016,None,space,4.491519585004426,34.64180761399621,None,34.384901161000016,None,34.384901161000016,None,34.384901161000016,None,34.384901161000016,None,34.384901161000016,None,34.384901161000016,None,34.384901161000016,None,,001,,,2020_Jun_02_2253,reactive_intentional_encoding_looped,3.2.4,59.987748702722996,
"The response options are below each image. In this case, you should press 'J' to indicate that the book was previously paired with the woman, Jessica Alba.",Press space to continue!,None,instruction_images/oldBook.png,instruction_images/oldBook.png,instruction_images/oldBook.png,0,0.3,0.0,-0.4,J,K,L,,,,,,,,,,,,,0,3,3,3,,,,,,,,,,,,,,,,,,,,,,,,,,39.33601737799472,None,39.33601737799472,None,space,0.7535650189965963,39.668482334993314,None,39.33601737799472,None,39.33601737799472,None,39.33601737799472,None,39.33601737799472,None,39.33601737799472,None,39.33601737799472,None,39.33601737799472,None,,001,,,2020_Jun_02_2253,reactive_intentional_encoding_looped,3.2.4,59.987748702722996,
"Try to chose the correct response as quickly as you can! Put your right hand on the keyboard and get ready to press 'J', "K", or "L"!",Press space to continue!,None,instruction_images/oldBook.png,instruction_images/oldBook.png,instruction_images/oldBook.png,0,0.3,0.0,-0.4,J,K,L,,,,,,,,,,,,,0,4,4,4,,,,,,,,,,,,,,,,,,,,,,,,,,40.58693977599614,None,40.58693977599614,None,space,0.9372856519912602,40.885733875998994,None,40.58693977599614,None,40.58693977599614,None,40.58693977599614,None,40.58693977599614,None,40.58693977599614,None,40.58693977599614,None,40.58693977599614,None,,001,,,2020_Jun_02_2253,reactive_intentional_encoding_looped,3.2.4,59.987748702722996,
These keyboard options will remain on the screen under each image as a reminder throughout the task.,Press space to continue!,None,instruction_images/oldBook.png,instruction_images/oldBook.png,instruction_images/oldBook.png,0,0.3,0.0,-0.4,J,K,L,,,,,,,,,,,,,0,5,5,5,,,,,,,,,,,,,,,,,,,,,,,,,,41.97306026700244,None,41.97306026700244,None,space,0.38253916100075,42.25545135200082,None,41.97306026700244,None,41.97306026700244,None,41.97306026700244,None,41.97306026700244,None,41.97306026700244,None,41.97306026700244,None,41.97306026700244,None,,001,,,2020_Jun_02_2253,reactive_intentional_encoding_looped,3.2.4,59.987748702722996,
"When you're ready to start the game, press space!",None,None,None,None,None,0,0.3,0.0,-0.4,None,None,None,,,,,,,,,,,,,0,6,6,6,,,,,,,,,,,,,,,,,,,,,,,,,,42.76811674700002,None,42.76811674700002,None,space,6.274842908998835,43.06882299600693,None,42.76811674700002,None,42.76811674700002,None,42.76811674700002,None,42.76811674700002,None,42.76811674700002,None,42.76811674700002,None,42.76811674700002,None,,001,,,2020_Jun_02_2253,reactive_intentional_encoding_looped,3.2.4,59.987748702722996,
