instructions1,Instructions2,Image1,Image2,Image3,Image_4,position_1x,position_1y,position_2x,position_2y,J_key,K_key,L_key,trial,image_a,image_b,category_b,image_correct,image_alternative1,image_alternative2,instruction_intentional_encoding.thisRepN,instruction_intentional_encoding.thisTrialN,instruction_intentional_encoding.thisN,instruction_intentional_encoding.thisIndex,trials.thisRepN,trials.thisTrialN,trials.thisN,trials.thisIndex,trials_4.thisRepN,trials_4.thisTrialN,trials_4.thisN,trials_4.thisIndex,trials_2.thisRepN,trials_2.thisTrialN,trials_2.thisN,trials_2.thisIndex,trials_3.thisRepN,trials_3.thisTrialN,trials_3.thisN,trials_3.thisIndex,text.started,text.stopped,instructions_text2.started,instructions_text2.stopped,response.keys,response.rt,response.started,response.stopped,image1.started,image1.stopped,image2.started,image2.stopped,a_image.started,a_image.stopped,b_image.started,b_image.stopped,text_12.started,text_12.stopped,text_3.started,text_3.stopped,text_4.started,text_4.stopped,image_3.started,image_3.stopped,key_resp.keys,key_resp.rt,key_resp.started,key_resp.stopped,text_5.started,text_5.stopped,text_8.started,text_8.stopped,key_resp_2.keys,key_resp_2.rt,key_resp_2.started,key_resp_2.stopped,image.started,image.stopped,image_2.started,image_2.stopped,image_5.started,image_5.stopped,image_6.started,image_6.stopped,K.started,K.stopped,L.started,L.stopped,J.started,J.stopped,instruct_text.started,instruct_text.stopped,a_image_retrieve.started,a_image_retrieve.stopped,text_2.started,text_2.stopped,correct_pair.started,correct_pair.stopped,afc_text.started,afc_text.stopped,alternative_1.started,alternative_1.stopped,alternative_2.started,alternative_2.stopped,participant,sex,age,,date,expName,psychopyVersion,frameRate,
Welcome to the memory experiment!,Press space to continue!,None,None,None,None,0,0.3,0.0,-0.4,None,None,None,,,,,,,,0,0,0,0,,,,,,,,,,,,,,,,,7.834583903008024,None,7.834583903008024,None,space,1.2752393120026682,7.834583903008024,None,7.834583903008024,None,7.834583903008024,None,,,,,,,,,,,,,,,,,,,,,,,,,,,,,,,,,,,,,,,,,,,,,,,,,,,,,,001,,,2020_Jun_02_2336,reactive_intentional_encoding_looped,3.2.4,59.7577136651341,
"On each trial of this task, you will see two images on the left and right side of the computer screen, like this.",Press space to continue!,instruction_images/jessica_alba.jpg,instruction_images/oldBook.png,None,None,0,0.3,0.0,-0.4,None,None,None,,,,,,,,0,1,1,1,,,,,,,,,,,,,,,,,9.398433326001395,None,9.398433326001395,None,space,5.356639721998363,9.398433326001395,None,9.398433326001395,None,9.398433326001395,None,,,,,,,,,,,,,,,,,,,,,,,,,,,,,,,,,,,,,,,,,,,,,,,,,,,,,,001,,,2020_Jun_02_2336,reactive_intentional_encoding_looped,3.2.4,59.7577136651341,
Your job is to memorize that these images  go together. You can use any strategy to remember this.,Press space to continue!,instruction_images/jessica_alba.jpg,instruction_images/oldBook.png,None,None,0,0.3,0.0,-0.4,None,None,None,,,,,,,,0,2,2,2,,,,,,,,,,,,,,,,,14.89947435000795,None,14.89947435000795,None,space,5.998137037997367,14.89947435000795,None,14.89947435000795,None,14.89947435000795,None,,,,,,,,,,,,,,,,,,,,,,,,,,,,,,,,,,,,,,,,,,,,,,,,,,,,,,001,,,2020_Jun_02_2336,reactive_intentional_encoding_looped,3.2.4,59.7577136651341,
"For example, you could rehearse them in your memory, or link them through a story.",Press space to continue!,instruction_images/jessica_alba.jpg,instruction_images/oldBook.png,None,None,0,0.3,0.0,-0.4,None,None,None,,,,,,,,0,3,3,3,,,,,,,,,,,,,,,,,21.04797090300417,None,21.04797090300417,None,space,2.2689888079912635,21.04797090300417,None,21.04797090300417,None,21.04797090300417,None,,,,,,,,,,,,,,,,,,,,,,,,,,,,,,,,,,,,,,,,,,,,,,,,,,,,,,001,,,2020_Jun_02_2336,reactive_intentional_encoding_looped,3.2.4,59.7577136651341,
It's important that you remember that these images go together. Your memory will later be tested. ,Press space to continue!,instruction_images/jessica_alba.jpg,instruction_images/oldBook.png,None,None,0,0.3,0.0,-0.4,None,None,None,,,,,,,,0,4,4,4,,,,,,,,,,,,,,,,,23.451319719999447,None,23.451319719999447,None,space,2.978459070000099,23.451319719999447,None,23.451319719999447,None,23.451319719999447,None,,,,,,,,,,,,,,,,,,,,,,,,,,,,,,,,,,,,,,,,,,,,,,,,,,,,,,001,,,2020_Jun_02_2336,reactive_intentional_encoding_looped,3.2.4,59.7577136651341,
"Each pair of images will only last on the screen for a few sceonds, so pay attention!",Press space to continue!,instruction_images/jessica_alba.jpg,instruction_images/oldBook.png,None,None,0,0.3,0.0,-0.4,None,None,None,,,,,,,,0,5,5,5,,,,,,,,,,,,,,,,,26.56477592900046,None,26.56477592900046,None,space,3.2988731899968116,26.56477592900046,None,26.56477592900046,None,26.56477592900046,None,,,,,,,,,,,,,,,,,,,,,,,,,,,,,,,,,,,,,,,,,,,,,,,,,,,,,,001,,,2020_Jun_02_2336,reactive_intentional_encoding_looped,3.2.4,59.7577136651341,
Get ready to see a series of image pairs! ,Press space to continue!,instruction_images/jessica_alba.jpg,instruction_images/oldBook.png,None,None,0,0.3,0.0,-0.4,None,None,None,,,,,,,,0,6,6,6,,,,,,,,,,,,,,,,,30.017150204002974,None,30.017150204002974,None,space,0.9024435210012598,30.017150204002974,None,30.017150204002974,None,30.017150204002974,None,,,,,,,,,,,,,,,,,,,,,,,,,,,,,,,,,,,,,,,,,,,,,,,,,,,,,,001,,,2020_Jun_02_2336,reactive_intentional_encoding_looped,3.2.4,59.7577136651341,
"When you're ready to start, press space!",None,None,None,None,None,0,0.0,None,None,None,None,None,,,,,,,,0,7,7,7,,,,,,,,,,,,,,,,,31.047609343004297,None,31.047609343004297,None,space,0.7902140840014908,31.047609343004297,None,31.047609343004297,None,31.047609343004297,None,,,,,,,,,,,,,,,,,,,,,,,,,,,,,,,,,,,,,,,,,,,,,,,,,,,,,,001,,,2020_Jun_02_2336,reactive_intentional_encoding_looped,3.2.4,59.7577136651341,
,,,,,,,,,,,,,1,images/flipflopsBlue.png,images/amy_poehler_c.jpg,face,,,,,,,,0,0,0,0,,,,,,,,,,,,,,,,,,,,,,,,,None,None,None,None,None,None,,,,,,,,,,,,,,,,,,,,,,,,,,,,,,,,,,,,,,,,,,,,,,,,001,,,2020_Jun_02_2336,reactive_intentional_encoding_looped,3.2.4,59.7577136651341,
,,,,,,,,,,,,,2,images/bag_gift.png,images/bill_gates_a.jpg,face,,,,,,,,0,1,1,1,,,,,,,,,,,,,,,,,,,,,,,,,None,None,None,None,None,None,,,,,,,,,,,,,,,,,,,,,,,,,,,,,,,,,,,,,,,,,,,,,,,,001,,,2020_Jun_02_2336,reactive_intentional_encoding_looped,3.2.4,59.7577136651341,
,,,,,,,,,,,,,3,images/ball_8.png,images/courtney_cox_c.jpg,face,,,,,,,,0,2,2,2,,,,,,,,,,,,,,,,,,,,,,,,,None,None,None,None,None,None,,,,,,,,,,,,,,,,,,,,,,,,,,,,,,,,,,,,,,,,,,,,,,,,001,,,2020_Jun_02_2336,reactive_intentional_encoding_looped,3.2.4,59.7577136651341,
,,,,,,,,,,,,,4,images/ball_baseball.png,images/dakota_fanning_c.jpg,face,,,,,,,,0,3,3,3,,,,,,,,,,,,,,,,,,,,,,,,,None,None,None,None,None,None,,,,,,,,,,,,,,,,,,,,,,,,,,,,,,,,,,,,,,,,,,,,,,,,001,,,2020_Jun_02_2336,reactive_intentional_encoding_looped,3.2.4,59.7577136651341,
,,,,,,,,,,,,,5,images/balloon.jpg,images/drew_barrymore_c.jpg,face,,,,,,,,0,4,4,4,,,,,,,,,,,,,,,,,,,,,,,,,32.40376640400791,None,32.40376640400791,None,32.40376640400791,None,,,,,,,,,,,,,,,,,,,,,,,,,,,,,,,,,,,,,,,,,,,,,,,,001,,,2020_Jun_02_2336,reactive_intentional_encoding_looped,3.2.4,59.7577136651341,
,,,,,,,,,,,,,6,images/bandage.jpg,images/ellen_degeneres_b.jpg,face,,,,,,,,0,5,5,5,,,,,,,,,,,,,,,,,,,,,,,,,None,None,None,None,None,None,,,,,,,,,,,,,,,,,,,,,,,,,,,,,,,,,,,,,,,,,,,,,,,,001,,,2020_Jun_02_2336,reactive_intentional_encoding_looped,3.2.4,59.7577136651341,
,,,,,,,,,,,,,7,images/barrel.jpg,images/emma_stone.jpg,face,,,,,,,,0,6,6,6,,,,,,,,,,,,,,,,,,,,,,,,,32.564096069007064,None,32.564096069007064,None,32.564096069007064,None,,,,,,,,,,,,,,,,,,,,,,,,,,,,,,,,,,,,,,,,,,,,,,,,001,,,2020_Jun_02_2336,reactive_intentional_encoding_looped,3.2.4,59.7577136651341,
,,,,,,,,,,,,,8,images/bathrobe.png,images/emma_watson.jpg,face,,,,,,,,0,7,7,7,,,,,,,,,,,,,,,,,,,,,,,,,32.66369434700755,None,32.66369434700755,None,32.66369434700755,None,,,,,,,,,,,,,,,,,,,,,,,,,,,,,,,,,,,,,,,,,,,,,,,,001,,,2020_Jun_02_2336,reactive_intentional_encoding_looped,3.2.4,59.7577136651341,
,,,,,,,,,,,,,9,images/beetle.png,images/george_clooney_a.jpg,face,,,,,,,,0,8,8,8,,,,,,,,,,,,,,,,,,,,,,,,,32.74783668099553,None,32.74783668099553,None,32.74783668099553,None,,,,,,,,,,,,,,,,,,,,,,,,,,,,,,,,,,,,,,,,,,,,,,,,001,,,2020_Jun_02_2336,reactive_intentional_encoding_looped,3.2.4,59.7577136651341,
,,,,,,,,,,,,,10,images/bench_park.png,images/gwen_stefani_c.jpg,face,,,,,,,,0,9,9,9,,,,,,,,,,,,,,,,,,,,,,,,,32.87089629800175,None,32.87089629800175,None,32.87089629800175,None,,,,,,,,,,,,,,,,,,,,,,,,,,,,,,,,,,,,,,,,,,,,,,,,001,,,2020_Jun_02_2336,reactive_intentional_encoding_looped,3.2.4,59.7577136651341,
,,,,,,,,,,,,,11,images/bib.png,images/hillary_clinton_a.jpg,face,,,,,,,,0,10,10,10,,,,,,,,,,,,,,,,,,,,,,,,,None,None,None,None,None,None,,,,,,,,,,,,,,,,,,,,,,,,,,,,,,,,,,,,,,,,,,,,,,,,001,,,2020_Jun_02_2336,reactive_intentional_encoding_looped,3.2.4,59.7577136651341,
,,,,,,,,,,,,,12,images/bird_parrot.png,images/jackie_kennedy_a.jpg,face,,,,,,,,0,11,11,11,,,,,,,,,,,,,,,,,,,,,,,,,33.08111516700592,None,33.08111516700592,None,33.08111516700592,None,,,,,,,,,,,,,,,,,,,,,,,,,,,,,,,,,,,,,,,,,,,,,,,,001,,,2020_Jun_02_2336,reactive_intentional_encoding_looped,3.2.4,59.7577136651341,
,,,,,,,,,,,,,1,images/flipflopsBlue.png,images/amy_poehler_c.jpg,face,,,,,,,,1,0,12,0,,,,,,,,,,,,,,,,,,,,,,,,,33.15138912900875,None,33.15138912900875,None,33.15138912900875,None,,,,,,,,,,,,,,,,,,,,,,,,,,,,,,,,,,,,,,,,,,,,,,,,001,,,2020_Jun_02_2336,reactive_intentional_encoding_looped,3.2.4,59.7577136651341,
,,,,,,,,,,,,,2,images/bag_gift.png,images/bill_gates_a.jpg,face,,,,,,,,1,1,13,1,,,,,,,,,,,,,,,,,,,,,,,,,33.231222386995796,None,33.231222386995796,None,33.231222386995796,None,,,,,,,,,,,,,,,,,,,,,,,,,,,,,,,,,,,,,,,,,,,,,,,,001,,,2020_Jun_02_2336,reactive_intentional_encoding_looped,3.2.4,59.7577136651341,
,,,,,,,,,,,,,3,images/ball_8.png,images/courtney_cox_c.jpg,face,,,,,,,,1,2,14,2,,,,,,,,,,,,,,,,,,,,,,,,,33.348222764005186,None,33.348222764005186,None,33.348222764005186,None,,,,,,,,,,,,,,,,,,,,,,,,,,,,,,,,,,,,,,,,,,,,,,,,001,,,2020_Jun_02_2336,reactive_intentional_encoding_looped,3.2.4,59.7577136651341,
,,,,,,,,,,,,,4,images/ball_baseball.png,images/dakota_fanning_c.jpg,face,,,,,,,,1,3,15,3,,,,,,,,,,,,,,,,,,,,,,,,,33.46415736700874,None,33.46415736700874,None,33.46415736700874,None,,,,,,,,,,,,,,,,,,,,,,,,,,,,,,,,,,,,,,,,,,,,,,,,001,,,2020_Jun_02_2336,reactive_intentional_encoding_looped,3.2.4,59.7577136651341,
,,,,,,,,,,,,,5,images/balloon.jpg,images/drew_barrymore_c.jpg,face,,,,,,,,1,4,16,4,,,,,,,,,,,,,,,,,,,,,,,,,33.53593565399933,None,33.53593565399933,None,33.53593565399933,None,,,,,,,,,,,,,,,,,,,,,,,,,,,,,,,,,,,,,,,,,,,,,,,,001,,,2020_Jun_02_2336,reactive_intentional_encoding_looped,3.2.4,59.7577136651341,
,,,,,,,,,,,,,6,images/bandage.jpg,images/ellen_degeneres_b.jpg,face,,,,,,,,1,5,17,5,,,,,,,,,,,,,,,,,,,,,,,,,33.64742486299656,None,33.64742486299656,None,33.64742486299656,None,,,,,,,,,,,,,,,,,,,,,,,,,,,,,,,,,,,,,,,,,,,,,,,,001,,,2020_Jun_02_2336,reactive_intentional_encoding_looped,3.2.4,59.7577136651341,
,,,,,,,,,,,,,7,images/barrel.jpg,images/emma_stone.jpg,face,,,,,,,,1,6,18,6,,,,,,,,,,,,,,,,,,,,,,,,,33.764521129996865,None,33.764521129996865,None,33.764521129996865,None,,,,,,,,,,,,,,,,,,,,,,,,,,,,,,,,,,,,,,,,,,,,,,,,001,,,2020_Jun_02_2336,reactive_intentional_encoding_looped,3.2.4,59.7577136651341,
,,,,,,,,,,,,,8,images/bathrobe.png,images/emma_watson.jpg,face,,,,,,,,1,7,19,7,,,,,,,,,,,,,,,,,,,,,,,,,33.8351881300041,None,33.8351881300041,None,33.8351881300041,None,,,,,,,,,,,,,,,,,,,,,,,,,,,,,,,,,,,,,,,,,,,,,,,,001,,,2020_Jun_02_2336,reactive_intentional_encoding_looped,3.2.4,59.7577136651341,
,,,,,,,,,,,,,9,images/beetle.png,images/george_clooney_a.jpg,face,,,,,,,,1,8,20,8,,,,,,,,,,,,,,,,,,,,,,,,,33.91833341099846,None,33.91833341099846,None,33.91833341099846,None,,,,,,,,,,,,,,,,,,,,,,,,,,,,,,,,,,,,,,,,,,,,,,,,001,,,2020_Jun_02_2336,reactive_intentional_encoding_looped,3.2.4,59.7577136651341,
,,,,,,,,,,,,,10,images/bench_park.png,images/gwen_stefani_c.jpg,face,,,,,,,,1,9,21,9,,,,,,,,,,,,,,,,,,,,,,,,,34.04779788000451,None,34.04779788000451,None,34.04779788000451,None,,,,,,,,,,,,,,,,,,,,,,,,,,,,,,,,,,,,,,,,,,,,,,,,001,,,2020_Jun_02_2336,reactive_intentional_encoding_looped,3.2.4,59.7577136651341,
,,,,,,,,,,,,,11,images/bib.png,images/hillary_clinton_a.jpg,face,,,,,,,,1,10,22,10,,,,,,,,,,,,,,,,,,,,,,,,,34.14820745200268,None,34.14820745200268,None,34.14820745200268,None,,,,,,,,,,,,,,,,,,,,,,,,,,,,,,,,,,,,,,,,,,,,,,,,001,,,2020_Jun_02_2336,reactive_intentional_encoding_looped,3.2.4,59.7577136651341,
,,,,,,,,,,,,,12,images/bird_parrot.png,images/jackie_kennedy_a.jpg,face,,,,,,,,1,11,23,11,,,,,,,,,,,,,,,,,,,,,,,,,34.23615840000275,None,34.23615840000275,None,34.23615840000275,None,,,,,,,,,,,,,,,,,,,,,,,,,,,,,,,,,,,,,,,,,,,,,,,,001,,,2020_Jun_02_2336,reactive_intentional_encoding_looped,3.2.4,59.7577136651341,
Great job! Now it's time for the memory test. We willl see how well you remember the pairs.,Press space to continue!,None,None,None,None,0,0.3,0.0,-0.4,None,None,None,,,,,,,,,,,,,,,,0,0,0,0,,,,,,,,,,,,,,,,,,,,,,,,,,,34.34983372699935,None,34.34983372699935,None,34.34983372699935,None,space,5.359426092996728,34.38107184099499,None,,,,,,,,,,,,,,,,,,,,,,,,,,,,,,,,,,,,,,001,,,2020_Jun_02_2336,reactive_intentional_encoding_looped,3.2.4,59.7577136651341,
You will first see one image on the computer screen. Try to bring to mind the associated image pair.,Press space to continue!,instruction_images/jessica_alba.jpg,None,None,None,0,0.3,0.0,-0.4,None,None,None,,,,,,,,,,,,,,,,0,1,1,1,,,,,,,,,,,,,,,,,,,,,,,,,,,39.81405879399972,None,39.81405879399972,None,39.81405879399972,None,space,3.4024700680020032,39.86363244999666,None,,,,,,,,,,,,,,,,,,,,,,,,,,,,,,,,,,,,,,001,,,2020_Jun_02_2336,reactive_intentional_encoding_looped,3.2.4,59.7577136651341,
"In this situation, you would try to imagine the book.",Press space to continue!,instruction_images/jessica_alba.jpg,None,None,None,0,0.3,0.0,-0.4,J,K,L,,,,,,,,,,,,,,,,0,2,2,2,,,,,,,,,,,,,,,,,,,,,,,,,,,43.31888832899858,None,43.31888832899858,None,43.31888832899858,None,space,1.7358609340008115,43.36414676200366,None,,,,,,,,,,,,,,,,,,,,,,,,,,,,,,,,,,,,,,001,,,2020_Jun_02_2336,reactive_intentional_encoding_looped,3.2.4,59.7577136651341,
"After you see one of the images, you will see three other images. Try to select the correct image pair.",Press space to continue!,instruction_images/jessica_alba.jpg,instruction_images/oldBook.png,instruction_images/oldBook.png,instruction_images/oldBook.png,0,0.3,0.0,-0.4,J,K,L,,,,,,,,,,,,,,,,,,,,0,0,0,0,,,,,,,,,,,,,,,,,,,,,,,,,,,,,,,,,45.26305363600841,None,45.26305363600841,None,space,6.477787555006216,45.51350155399996,None,45.26305363600841,None,45.26305363600841,None,45.26305363600841,None,45.26305363600841,None,45.26305363600841,None,45.26305363600841,None,45.26305363600841,None,,,,,,,,,,,,,,,,001,,,2020_Jun_02_2336,reactive_intentional_encoding_looped,3.2.4,59.7577136651341,
"The response options are below each image. In this case, you should press 'J' because the book was paired with the woman, Jessica Alba.",Press space to continue!,None,instruction_images/oldBook.png,instruction_images/oldBook.png,instruction_images/oldBook.png,0,0.3,0.0,-0.4,J,K,L,,,,,,,,,,,,,,,,,,,,0,1,1,1,,,,,,,,,,,,,,,,,,,,,,,,,,,,,,,,,52.16304978400876,None,52.16304978400876,None,space,5.124087693999172,52.46283068599587,None,52.16304978400876,None,52.16304978400876,None,52.16304978400876,None,52.16304978400876,None,52.16304978400876,None,52.16304978400876,None,52.16304978400876,None,,,,,,,,,,,,,,,,001,,,2020_Jun_02_2336,reactive_intentional_encoding_looped,3.2.4,59.7577136651341,
Try to chose the correct response as quickly as you can! Put your right hand on the keyboard and get ready to respond!,Press space to continue!,None,instruction_images/oldBook.png,instruction_images/oldBook.png,instruction_images/oldBook.png,0,0.3,0.0,-0.4,J,K,L,,,,,,,,,,,,,,,,,,,,0,2,2,2,,,,,,,,,,,,,,,,,,,,,,,,,,,,,,,,,57.72847855200234,None,57.72847855200234,None,space,7.1065864080010215,58.01656662899768,None,57.72847855200234,None,57.72847855200234,None,57.72847855200234,None,57.72847855200234,None,57.72847855200234,None,57.72847855200234,None,57.72847855200234,None,,,,,,,,,,,,,,,,001,,,2020_Jun_02_2336,reactive_intentional_encoding_looped,3.2.4,59.7577136651341,
"These keyboard options will remain on the screen under each image as a reminder throughout the task. If you don't know the answer, that's okay. Just take a guess!",Press space to continue!,None,instruction_images/oldBook.png,instruction_images/oldBook.png,instruction_images/oldBook.png,0,0.3,0.0,-0.4,J,K,L,,,,,,,,,,,,,,,,,,,,0,3,3,3,,,,,,,,,,,,,,,,,,,,,,,,,,,,,,,,,65.31140679199598,None,65.31140679199598,None,space,5.192461739003193,65.61258271400584,None,65.31140679199598,None,65.31140679199598,None,65.31140679199598,None,65.31140679199598,None,65.31140679199598,None,65.31140679199598,None,65.31140679199598,None,,,,,,,,,,,,,,,,001,,,2020_Jun_02_2336,reactive_intentional_encoding_looped,3.2.4,59.7577136651341,
"When you're ready to start, press space!",None,None,instruction_images/oldBook.png,instruction_images/oldBook.png,instruction_images/oldBook.png,0,0.3,0.0,-0.4,None,None,None,,,,,,,,,,,,,,,,,,,,0,4,4,4,,,,,,,,,,,,,,,,,,,,,,,,,,,,,,,,,70.98689903899503,None,70.98689903899503,None,space,2.1283007290039677,71.26688195699535,None,70.98689903899503,None,70.98689903899503,None,70.98689903899503,None,70.98689903899503,None,70.98689903899503,None,70.98689903899503,None,70.98689903899503,None,,,,,,,,,,,,,,,,001,,,2020_Jun_02_2336,reactive_intentional_encoding_looped,3.2.4,59.7577136651341,
,,,,,,,,,,,,,2,images/bag_gift.png,,face,images/bill_gates_a.jpg,images/bill_gates_a.jpg,images/bill_gates_a.jpg,,,,,,,,,,,,,,,,,0,0,0,1,,,,,,,,,,,,,,,,,,,,,,,,,,,,,,,,,,,,,,,,,,,,,,,,,,,73.97938186400279,75.97879074700177,73.97938186400279,75.97879074700177,75.48196678899694,75.97879074700177,76.49328896400402,None,76.49328896400402,None,76.49328896400402,None,76.49328896400402,None,,001,,,2020_Jun_02_2336,reactive_intentional_encoding_looped,3.2.4,59.7577136651341,
