instructions1,Instructions2,Image1,Image2,Image3,Image_4,position_1x,position_1y,position_2x,position_2y,J_key,K_key,L_key,trial,image_a,image_b,category_b,instruction_intentional_encoding.thisRepN,instruction_intentional_encoding.thisTrialN,instruction_intentional_encoding.thisN,instruction_intentional_encoding.thisIndex,trials.thisRepN,trials.thisTrialN,trials.thisN,trials.thisIndex,trials_4.thisRepN,trials_4.thisTrialN,trials_4.thisN,trials_4.thisIndex,trials_2.thisRepN,trials_2.thisTrialN,trials_2.thisN,trials_2.thisIndex,trials_3.thisRepN,trials_3.thisTrialN,trials_3.thisN,trials_3.thisIndex,image_correct,image_alternative1,image_alternative2,text.started,text.stopped,instructions_text2.started,instructions_text2.stopped,response.keys,response.rt,response.started,response.stopped,image1.started,image1.stopped,image2.started,image2.stopped,a_image.started,a_image.stopped,b_image.started,b_image.stopped,text_12.started,text_12.stopped,text_3.started,text_3.stopped,text_4.started,text_4.stopped,image_3.started,image_3.stopped,key_resp.keys,key_resp.rt,key_resp.started,key_resp.stopped,text_5.started,text_5.stopped,text_8.started,text_8.stopped,key_resp_2.keys,key_resp_2.rt,key_resp_2.started,key_resp_2.stopped,image.started,image.stopped,image_2.started,image_2.stopped,image_5.started,image_5.stopped,image_6.started,image_6.stopped,K.started,K.stopped,L.started,L.stopped,J.started,J.stopped,participant,sex,age,,date,expName,psychopyVersion,frameRate,
Welcome to the memory experiment!,Press space to continue!,None,None,None,None,0,0.3,0.0,-0.4,None,None,None,,,,,0,0,0,0,,,,,,,,,,,,,,,,,,,,12.790031298005488,None,12.790031298005488,None,space,1.5508741660014493,12.790031298005488,None,12.790031298005488,None,12.790031298005488,None,,,,,,,,,,,,,,,,,,,,,,,,,,,,,,,,,,,,,,,,001,,,2020_Jun_02_2331,reactive_intentional_encoding_looped,3.2.4,60.06435005908213,
"On each trial of this task, you will see two images on the left and right side of the computer screen, like below.",Press space to continue!,instruction_images/jessica_alba.jpg,instruction_images/oldBook.png,None,None,0,0.3,0.0,-0.4,None,None,None,,,,,0,1,1,1,,,,,,,,,,,,,,,,,,,,14.606477762004943,None,14.606477762004943,None,space,5.9426238010055386,14.606477762004943,None,14.606477762004943,None,14.606477762004943,None,,,,,,,,,,,,,,,,,,,,,,,,,,,,,,,,,,,,,,,,001,,,2020_Jun_02_2331,reactive_intentional_encoding_looped,3.2.4,60.06435005908213,
Your job is to memorize that these images  go together. You can use any strategy to remember this.,Press space to continue!,instruction_images/jessica_alba.jpg,instruction_images/oldBook.png,None,None,0,0.3,0.0,-0.4,None,None,None,,,,,0,2,2,2,,,,,,,,,,,,,,,,,,,,20.705048390009324,None,20.705048390009324,None,space,5.128877712995745,20.705048390009324,None,20.705048390009324,None,20.705048390009324,None,,,,,,,,,,,,,,,,,,,,,,,,,,,,,,,,,,,,,,,,001,,,2020_Jun_02_2331,reactive_intentional_encoding_looped,3.2.4,60.06435005908213,
"For example, you could rehearse them in your memory, or link them through a story.",Press space to continue!,instruction_images/jessica_alba.jpg,instruction_images/oldBook.png,None,None,0,0.3,0.0,-0.4,None,None,None,,,,,0,3,3,3,,,,,,,,,,,,,,,,,,,,25.986694996012375,None,25.986694996012375,None,space,2.862528857003781,25.986694996012375,None,25.986694996012375,None,25.986694996012375,None,,,,,,,,,,,,,,,,,,,,,,,,,,,,,,,,,,,,,,,,001,,,2020_Jun_02_2331,reactive_intentional_encoding_looped,3.2.4,60.06435005908213,
It's important that you remember that these images go together. Your memory will later be tested. ,Press space to continue!,instruction_images/jessica_alba.jpg,instruction_images/oldBook.png,None,None,0,0.3,0.0,-0.4,None,None,None,,,,,0,4,4,4,,,,,,,,,,,,,,,,,,,,28.973042884012102,None,28.973042884012102,None,space,3.2366635049984325,28.973042884012102,None,28.973042884012102,None,28.973042884012102,None,,,,,,,,,,,,,,,,,,,,,,,,,,,,,,,,,,,,,,,,001,,,2020_Jun_02_2331,reactive_intentional_encoding_looped,3.2.4,60.06435005908213,
"Each pair of images will only last on the screen for a few sceonds, so pay attention!",Press space to continue!,instruction_images/jessica_alba.jpg,instruction_images/oldBook.png,None,None,0,0.3,0.0,-0.4,None,None,None,,,,,0,5,5,5,,,,,,,,,,,,,,,,,,,,32.37003807700239,None,32.37003807700239,None,space,2.8008699199999683,32.37003807700239,None,32.37003807700239,None,32.37003807700239,None,,,,,,,,,,,,,,,,,,,,,,,,,,,,,,,,,,,,,,,,001,,,2020_Jun_02_2331,reactive_intentional_encoding_looped,3.2.4,60.06435005908213,
Get ready to see a series of image pairs! ,Press space to continue!,instruction_images/jessica_alba.jpg,instruction_images/oldBook.png,None,None,0,0.3,0.0,-0.4,None,None,None,,,,,0,6,6,6,,,,,,,,,,,,,,,,,,,,35.297604796011,None,35.297604796011,None,space,1.2962386969884392,35.297604796011,None,35.297604796011,None,35.297604796011,None,,,,,,,,,,,,,,,,,,,,,,,,,,,,,,,,,,,,,,,,001,,,2020_Jun_02_2331,reactive_intentional_encoding_looped,3.2.4,60.06435005908213,
"When you're ready to start the game, press space!",None,None,None,None,None,0,0.0,None,None,None,None,None,,,,,0,7,7,7,,,,,,,,,,,,,,,,,,,,36.71438760300225,None,36.71438760300225,None,space,3.4781264570046915,36.71438760300225,None,36.71438760300225,None,36.71438760300225,None,,,,,,,,,,,,,,,,,,,,,,,,,,,,,,,,,,,,,,,,001,,,2020_Jun_02_2331,reactive_intentional_encoding_looped,3.2.4,60.06435005908213,
,,,,,,,,,,,,,1,images/flipflopsBlue.png,images/amy_poehler_c.jpg,face,,,,,0,0,0,0,,,,,,,,,,,,,,,,,,,,,,,,,,,,40.304696794002666,None,40.304696794002666,None,40.304696794002666,None,,,,,,,,,,,,,,,,,,,,,,,,,,,,,,,,,,001,,,2020_Jun_02_2331,reactive_intentional_encoding_looped,3.2.4,60.06435005908213,
,,,,,,,,,,,,,2,images/bag_gift.png,images/bill_gates_a.jpg,face,,,,,0,1,1,1,,,,,,,,,,,,,,,,,,,,,,,,,,,,40.37436160100333,None,40.37436160100333,None,40.37436160100333,None,,,,,,,,,,,,,,,,,,,,,,,,,,,,,,,,,,001,,,2020_Jun_02_2331,reactive_intentional_encoding_looped,3.2.4,60.06435005908213,
,,,,,,,,,,,,,3,images/ball_8.png,images/courtney_cox_c.jpg,face,,,,,0,2,2,2,,,,,,,,,,,,,,,,,,,,,,,,,,,,40.489491566011566,None,40.489491566011566,None,40.489491566011566,None,,,,,,,,,,,,,,,,,,,,,,,,,,,,,,,,,,001,,,2020_Jun_02_2331,reactive_intentional_encoding_looped,3.2.4,60.06435005908213,
,,,,,,,,,,,,,4,images/ball_baseball.png,images/dakota_fanning_c.jpg,face,,,,,0,3,3,3,,,,,,,,,,,,,,,,,,,,,,,,,,,,40.58044966000307,None,40.58044966000307,None,40.58044966000307,None,,,,,,,,,,,,,,,,,,,,,,,,,,,,,,,,,,001,,,2020_Jun_02_2331,reactive_intentional_encoding_looped,3.2.4,60.06435005908213,
,,,,,,,,,,,,,5,images/balloon.jpg,images/drew_barrymore_c.jpg,face,,,,,0,4,4,4,,,,,,,,,,,,,,,,,,,,,,,,,,,,40.660137163009495,None,40.660137163009495,None,40.660137163009495,None,,,,,,,,,,,,,,,,,,,,,,,,,,,,,,,,,,001,,,2020_Jun_02_2331,reactive_intentional_encoding_looped,3.2.4,60.06435005908213,
,,,,,,,,,,,,,6,images/bandage.jpg,images/ellen_degeneres_b.jpg,face,,,,,0,5,5,5,,,,,,,,,,,,,,,,,,,,,,,,,,,,40.765592707000906,None,40.765592707000906,None,40.765592707000906,None,,,,,,,,,,,,,,,,,,,,,,,,,,,,,,,,,,001,,,2020_Jun_02_2331,reactive_intentional_encoding_looped,3.2.4,60.06435005908213,
,,,,,,,,,,,,,7,images/barrel.jpg,images/emma_stone.jpg,face,,,,,0,6,6,6,,,,,,,,,,,,,,,,,,,,,,,,,,,,40.90107745000569,None,40.90107745000569,None,40.90107745000569,None,,,,,,,,,,,,,,,,,,,,,,,,,,,,,,,,,,001,,,2020_Jun_02_2331,reactive_intentional_encoding_looped,3.2.4,60.06435005908213,
,,,,,,,,,,,,,8,images/bathrobe.png,images/emma_watson.jpg,face,,,,,0,7,7,7,,,,,,,,,,,,,,,,,,,,,,,,,,,,40.96378738000931,None,40.96378738000931,None,40.96378738000931,None,,,,,,,,,,,,,,,,,,,,,,,,,,,,,,,,,,001,,,2020_Jun_02_2331,reactive_intentional_encoding_looped,3.2.4,60.06435005908213,
,,,,,,,,,,,,,9,images/beetle.png,images/george_clooney_a.jpg,face,,,,,0,8,8,8,,,,,,,,,,,,,,,,,,,,,,,,,,,,41.05877873500867,41.02137293900887,41.05877873500867,41.02137293900887,41.05877873500867,41.02137293900887,,,,,,,,,,,,,,,,,,,,,,,,,,,,,,,,,,001,,,2020_Jun_02_2331,reactive_intentional_encoding_looped,3.2.4,60.06435005908213,
,,,,,,,,,,,,,10,images/bench_park.png,images/gwen_stefani_c.jpg,face,,,,,0,9,9,9,,,,,,,,,,,,,,,,,,,,,,,,,,,,41.164435161001165,41.12097923600231,41.164435161001165,41.12097923600231,41.164435161001165,41.12097923600231,,,,,,,,,,,,,,,,,,,,,,,,,,,,,,,,,,001,,,2020_Jun_02_2331,reactive_intentional_encoding_looped,3.2.4,60.06435005908213,
,,,,,,,,,,,,,11,images/bib.png,images/hillary_clinton_a.jpg,face,,,,,0,10,10,10,,,,,,,,,,,,,,,,,,,,,,,,,,,,41.280541936008376,None,41.280541936008376,None,41.280541936008376,None,,,,,,,,,,,,,,,,,,,,,,,,,,,,,,,,,,001,,,2020_Jun_02_2331,reactive_intentional_encoding_looped,3.2.4,60.06435005908213,
,,,,,,,,,,,,,12,images/bird_parrot.png,images/jackie_kennedy_a.jpg,face,,,,,0,11,11,11,,,,,,,,,,,,,,,,,,,,,,,,,,,,41.36926481001137,None,41.36926481001137,None,41.36926481001137,None,,,,,,,,,,,,,,,,,,,,,,,,,,,,,,,,,,001,,,2020_Jun_02_2331,reactive_intentional_encoding_looped,3.2.4,60.06435005908213,
,,,,,,,,,,,,,1,images/flipflopsBlue.png,images/amy_poehler_c.jpg,face,,,,,1,0,12,0,,,,,,,,,,,,,,,,,,,,,,,,,,,,41.47434295200219,None,41.47434295200219,None,41.47434295200219,None,,,,,,,,,,,,,,,,,,,,,,,,,,,,,,,,,,001,,,2020_Jun_02_2331,reactive_intentional_encoding_looped,3.2.4,60.06435005908213,
,,,,,,,,,,,,,2,images/bag_gift.png,images/bill_gates_a.jpg,face,,,,,1,1,13,1,,,,,,,,,,,,,,,,,,,,,,,,,,,,41.589036820005276,None,41.589036820005276,None,41.589036820005276,None,,,,,,,,,,,,,,,,,,,,,,,,,,,,,,,,,,001,,,2020_Jun_02_2331,reactive_intentional_encoding_looped,3.2.4,60.06435005908213,
,,,,,,,,,,,,,3,images/ball_8.png,images/courtney_cox_c.jpg,face,,,,,1,2,14,2,,,,,,,,,,,,,,,,,,,,,,,,,,,,41.680765190001694,None,41.680765190001694,None,41.680765190001694,None,,,,,,,,,,,,,,,,,,,,,,,,,,,,,,,,,,001,,,2020_Jun_02_2331,reactive_intentional_encoding_looped,3.2.4,60.06435005908213,
,,,,,,,,,,,,,4,images/ball_baseball.png,images/dakota_fanning_c.jpg,face,,,,,1,3,15,3,,,,,,,,,,,,,,,,,,,,,,,,,,,,41.771080199003336,None,41.771080199003336,None,41.771080199003336,None,,,,,,,,,,,,,,,,,,,,,,,,,,,,,,,,,,001,,,2020_Jun_02_2331,reactive_intentional_encoding_looped,3.2.4,60.06435005908213,
,,,,,,,,,,,,,5,images/balloon.jpg,images/drew_barrymore_c.jpg,face,,,,,1,4,16,4,,,,,,,,,,,,,,,,,,,,,,,,,,,,41.87658937400556,None,41.87658937400556,None,41.87658937400556,None,,,,,,,,,,,,,,,,,,,,,,,,,,,,,,,,,,001,,,2020_Jun_02_2331,reactive_intentional_encoding_looped,3.2.4,60.06435005908213,
,,,,,,,,,,,,,6,images/bandage.jpg,images/ellen_degeneres_b.jpg,face,,,,,1,5,17,5,,,,,,,,,,,,,,,,,,,,,,,,,,,,41.993791887012776,None,41.993791887012776,None,41.993791887012776,None,,,,,,,,,,,,,,,,,,,,,,,,,,,,,,,,,,001,,,2020_Jun_02_2331,reactive_intentional_encoding_looped,3.2.4,60.06435005908213,
,,,,,,,,,,,,,7,images/barrel.jpg,images/emma_stone.jpg,face,,,,,1,6,18,6,,,,,,,,,,,,,,,,,,,,,,,,,,,,42.09746976599854,None,42.09746976599854,None,42.09746976599854,None,,,,,,,,,,,,,,,,,,,,,,,,,,,,,,,,,,001,,,2020_Jun_02_2331,reactive_intentional_encoding_looped,3.2.4,60.06435005908213,
,,,,,,,,,,,,,8,images/bathrobe.png,images/emma_watson.jpg,face,,,,,1,7,19,7,,,,,,,,,,,,,,,,,,,,,,,,,,,,42.18580162100261,None,42.18580162100261,None,42.18580162100261,None,,,,,,,,,,,,,,,,,,,,,,,,,,,,,,,,,,001,,,2020_Jun_02_2331,reactive_intentional_encoding_looped,3.2.4,60.06435005908213,
,,,,,,,,,,,,,9,images/beetle.png,images/george_clooney_a.jpg,face,,,,,1,8,20,8,,,,,,,,,,,,,,,,,,,,,,,,,,,,42.2697074010066,None,42.2697074010066,None,42.2697074010066,None,,,,,,,,,,,,,,,,,,,,,,,,,,,,,,,,,,001,,,2020_Jun_02_2331,reactive_intentional_encoding_looped,3.2.4,60.06435005908213,
,,,,,,,,,,,,,10,images/bench_park.png,images/gwen_stefani_c.jpg,face,,,,,1,9,21,9,,,,,,,,,,,,,,,,,,,,,,,,,,,,42.37270539000747,None,42.37270539000747,None,42.37270539000747,None,,,,,,,,,,,,,,,,,,,,,,,,,,,,,,,,,,001,,,2020_Jun_02_2331,reactive_intentional_encoding_looped,3.2.4,60.06435005908213,
,,,,,,,,,,,,,11,images/bib.png,images/hillary_clinton_a.jpg,face,,,,,1,10,22,10,,,,,,,,,,,,,,,,,,,,,,,,,,,,42.498539535008604,None,42.498539535008604,None,42.498539535008604,None,,,,,,,,,,,,,,,,,,,,,,,,,,,,,,,,,,001,,,2020_Jun_02_2331,reactive_intentional_encoding_looped,3.2.4,60.06435005908213,
,,,,,,,,,,,,,12,images/bird_parrot.png,images/jackie_kennedy_a.jpg,face,,,,,1,11,23,11,,,,,,,,,,,,,,,,,,,,,,,,,,,,42.588517871001386,None,42.588517871001386,None,42.588517871001386,None,,,,,,,,,,,,,,,,,,,,,,,,,,,,,,,,,,001,,,2020_Jun_02_2331,reactive_intentional_encoding_looped,3.2.4,60.06435005908213,
Great job! Now it's time for the memory test. We willl see how well you remember the pairs.,Press space to continue!,None,None,None,None,0,0.3,0.0,-0.4,None,None,None,,,,,,,,,,,,,0,0,0,0,,,,,,,,,,,,,,,,,,,,,,,,,,,,,,42.69186250401253,None,42.69186250401253,None,42.69186250401253,None,space,4.436444908002159,42.72537297300005,None,,,,,,,,,,,,,,,,,,,,,,,,001,,,2020_Jun_02_2331,reactive_intentional_encoding_looped,3.2.4,60.06435005908213,
You will first see one image on the computer screen. Try to bring to mind the associated image pair.,Press space to continue!,instruction_images/jessica_alba.jpg,None,None,None,0,0.3,0.0,-0.4,None,None,None,,,,,,,,,,,,,0,1,1,1,,,,,,,,,,,,,,,,,,,,,,,,,,,,,,47.24170498701278,None,47.24170498701278,None,47.24170498701278,None,space,6.502082788007101,47.28141678900283,None,,,,,,,,,,,,,,,,,,,,,,,,001,,,2020_Jun_02_2331,reactive_intentional_encoding_looped,3.2.4,60.06435005908213,
"In this situation, you would try to imagine the book.",Press space to continue!,instruction_images/jessica_alba.jpg,None,None,None,0,0.3,0.0,-0.4,J,K,L,,,,,,,,,,,,,0,2,2,2,,,,,,,,,,,,,,,,,,,,,,,,,,,,,,53.834838793001836,None,53.834838793001836,None,53.834838793001836,None,space,2.5435303799895337,53.87057881100918,None,,,,,,,,,,,,,,,,,,,,,,,,001,,,2020_Jun_02_2331,reactive_intentional_encoding_looped,3.2.4,60.06435005908213,
"After you see one of the images, you will see three other images. You should select the correct image pair.",Press space to continue!,instruction_images/jessica_alba.jpg,instruction_images/oldBook.png,instruction_images/oldBook.png,instruction_images/oldBook.png,0,0.3,0.0,-0.4,J,K,L,,,,,,,,,,,,,,,,,0,0,0,0,,,,,,,,,,,,,,,,,,,,,,,,,,,,,,,,,,,,56.579300317011075,None,56.579300317011075,None,space,10.837105224010884,56.81237837100343,None,56.579300317011075,None,56.579300317011075,None,56.579300317011075,None,56.579300317011075,None,56.579300317011075,None,56.579300317011075,None,56.579300317011075,None,,001,,,2020_Jun_02_2331,reactive_intentional_encoding_looped,3.2.4,60.06435005908213,
"The response options are below each image. In this case, you should press 'J' because the book was paired with the woman, Jessica Alba.",Press space to continue!,None,instruction_images/oldBook.png,instruction_images/oldBook.png,instruction_images/oldBook.png,0,0.3,0.0,-0.4,J,K,L,,,,,,,,,,,,,,,,,0,1,1,1,,,,,,,,,,,,,,,,,,,,,,,,,,,,,,,,,,,,67.78597609500866,None,67.78597609500866,None,space,5.854805826995289,68.07269445300335,None,67.78597609500866,None,67.78597609500866,None,67.78597609500866,None,67.78597609500866,None,67.78597609500866,None,67.78597609500866,None,67.78597609500866,None,,001,,,2020_Jun_02_2331,reactive_intentional_encoding_looped,3.2.4,60.06435005908213,
Try to chose the correct response as quickly as you can! Put your right hand on the keyboard and get ready to respond!,Press space to continue!,None,instruction_images/oldBook.png,instruction_images/oldBook.png,instruction_images/oldBook.png,0,0.3,0.0,-0.4,J,K,L,,,,,,,,,,,,,,,,,0,2,2,2,,,,,,,,,,,,,,,,,,,,,,,,,,,,,,,,,,,,74.11088324400771,None,74.11088324400771,None,space,8.370197664989973,74.39851756500138,None,74.11088324400771,None,74.11088324400771,None,74.11088324400771,None,74.11088324400771,None,74.11088324400771,None,74.11088324400771,None,74.11088324400771,None,,001,,,2020_Jun_02_2331,reactive_intentional_encoding_looped,3.2.4,60.06435005908213,
These keyboard options will remain on the screen under each image as a reminder throughout the task.,Press space to continue!,None,instruction_images/oldBook.png,instruction_images/oldBook.png,instruction_images/oldBook.png,0,0.3,0.0,-0.4,J,K,L,,,,,,,,,,,,,,,,,0,3,3,3,,,,,,,,,,,,,,,,,,,,,,,,,,,,,,,,,,,,82.88131301300018,None,82.88131301300018,None,space,3.045295347998035,83.16075371199986,None,82.88131301300018,None,82.88131301300018,None,82.88131301300018,None,82.88131301300018,None,82.88131301300018,None,82.88131301300018,None,82.88131301300018,None,,001,,,2020_Jun_02_2331,reactive_intentional_encoding_looped,3.2.4,60.06435005908213,
"When you're ready to start the game, press space!",None,None,None,None,None,0,0.3,0.0,-0.4,None,None,None,,,,,,,,,,,,,,,,,0,4,4,4,,,,,,,,,,,,,,,,,,,,,,,,,,,,,,,,,,,,86.30182001300273,None,86.30182001300273,None,space,3.8389951750141336,86.59579229800147,None,86.30182001300273,None,86.30182001300273,None,86.30182001300273,None,86.30182001300273,None,86.30182001300273,None,86.30182001300273,None,86.30182001300273,None,,001,,,2020_Jun_02_2331,reactive_intentional_encoding_looped,3.2.4,60.06435005908213,
