trial,image_a,image_b,category_b,trials.thisRepN,trials.thisTrialN,trials.thisN,trials.thisIndex,Instruction_text.started,Instruction_text.stopped,a_image.started,a_image.stopped,b_image.started,b_image.stopped,text.started,text.stopped,participant,session,date,expName,psychopyVersion,frameRate,
1,images/flipflopsBlue.png,images/amy_poehler_c.jpg,face,0,0,0,0,6.007477562001441,None,7.308534237992717,None,7.308534237992717,None,,,k,001,2020_May_29_1259,reactive_intentional_encoding,3.2.4,60.03188257458548,
2,images/bag_gift.png,images/bill_gates_a.jpg,face,0,1,1,1,,,8.253254932991695,None,8.253254932991695,None,,,k,001,2020_May_29_1259,reactive_intentional_encoding,3.2.4,60.03188257458548,
3,images/ball_8.png,images/courtney_cox_c.jpg,face,0,2,2,2,,,9.253368616991793,None,9.253368616991793,None,,,k,001,2020_May_29_1259,reactive_intentional_encoding,3.2.4,60.03188257458548,
4,images/ball_baseball.png,images/dakota_fanning_c.jpg,face,0,3,3,3,,,10.253675703992485,None,10.253675703992485,None,,,k,001,2020_May_29_1259,reactive_intentional_encoding,3.2.4,60.03188257458548,
5,images/balloon.jpg,images/drew_barrymore_c.jpg,face,0,4,4,4,,,11.25329139099631,None,11.25329139099631,None,,,k,001,2020_May_29_1259,reactive_intentional_encoding,3.2.4,60.03188257458548,
6,images/bandage.jpg,images/ellen_degeneres_b.jpg,face,0,5,5,5,,,12.253984258000855,None,12.253984258000855,None,,,k,001,2020_May_29_1259,reactive_intentional_encoding,3.2.4,60.03188257458548,
7,images/barrel.jpg,images/emma_stone.jpg,face,0,6,6,6,,,13.253268218992162,None,13.253268218992162,None,,,k,001,2020_May_29_1259,reactive_intentional_encoding,3.2.4,60.03188257458548,
8,images/bathrobe.png,images/emma_watson.jpg,face,0,7,7,7,,,14.254209955994156,None,14.254209955994156,None,,,k,001,2020_May_29_1259,reactive_intentional_encoding,3.2.4,60.03188257458548,
9,images/beetle.png,images/george_clooney_a.jpg,face,0,8,8,8,,,15.25412429300195,None,15.25412429300195,None,,,k,001,2020_May_29_1259,reactive_intentional_encoding,3.2.4,60.03188257458548,
10,images/bench_park.png,images/gwen_stefani_c.jpg,face,0,9,9,9,,,16.253691563004395,None,16.253691563004395,None,,,k,001,2020_May_29_1259,reactive_intentional_encoding,3.2.4,60.03188257458548,
11,images/bib.png,images/hillary_clinton_a.jpg,face,0,10,10,10,,,17.254007066992926,None,17.254007066992926,None,,,k,001,2020_May_29_1259,reactive_intentional_encoding,3.2.4,60.03188257458548,
12,images/bird_parrot.png,images/jackie_kennedy_a.jpg,face,0,11,11,11,,,18.254217075998895,None,18.254217075998895,None,,,k,001,2020_May_29_1259,reactive_intentional_encoding,3.2.4,60.03188257458548,
13,images/blankets.jpg,images/james_franco_c.jpg,face,0,12,12,12,,,19.286596568999812,None,19.286596568999812,None,,,k,001,2020_May_29_1259,reactive_intentional_encoding,3.2.4,60.03188257458548,
14,images/boar.png,images/jamie_foxx_b.jpg,face,0,13,13,13,,,20.25402971499716,None,20.25402971499716,None,,,k,001,2020_May_29_1259,reactive_intentional_encoding,3.2.4,60.03188257458548,
15,images/boat_sail.png,images/queen_elizabeth_a.jpg,face,0,14,14,14,,,21.25385256500158,None,21.25385256500158,None,,,k,001,2020_May_29_1259,reactive_intentional_encoding,3.2.4,60.03188257458548,
16,images/carton_eggs.jpg,images/jennifer_aniston_a.jpg,face,0,15,15,15,,,22.2530337079952,None,22.2530337079952,None,,,k,001,2020_May_29_1259,reactive_intentional_encoding,3.2.4,60.03188257458548,
17,images/cashregister.png,images/jimmy_fallon.jpg,face,0,16,16,16,,,23.253983563001384,None,23.253983563001384,None,,,k,001,2020_May_29_1259,reactive_intentional_encoding,3.2.4,60.03188257458548,
18,images/castle_sand.png,images/julia_roberts_c.jpg,face,0,17,17,17,,,24.23709717199381,None,24.23709717199381,None,,,k,001,2020_May_29_1259,reactive_intentional_encoding,3.2.4,60.03188257458548,
19,images/castle.png,images/katy_perry.jpg,face,0,18,18,18,,,25.237212637002813,24.754529130004812,25.237212637002813,24.754529130004812,,,k,001,2020_May_29_1259,reactive_intentional_encoding,3.2.4,60.03188257458548,
20,images/cat.png,images/kristen_stewart.jpg,face,0,19,19,19,,,26.237023701993166,25.753878357005306,26.237023701993166,25.753878357005306,,,k,001,2020_May_29_1259,reactive_intentional_encoding,3.2.4,60.03188257458548,
21,images/caterpillar_green.png,images/mark_zuckerberg_c.jpg,face,0,20,20,20,,,27.23731053600204,26.753972185993916,27.23731053600204,26.753972185993916,,,k,001,2020_May_29_1259,reactive_intentional_encoding,3.2.4,60.03188257458548,
22,images/cautionSignFrench.jpg,images/michelle_obama_a.jpg,face,0,21,21,21,,,28.23695732699707,27.75409895599296,28.23695732699707,27.75409895599296,,,k,001,2020_May_29_1259,reactive_intentional_encoding,3.2.4,60.03188257458548,
23,images/chain_rusty.png,images/neil_patrick_harris.jpg,face,0,22,22,22,,,29.236401693997323,28.753904194993083,29.236401693997323,28.753904194993083,,,k,001,2020_May_29_1259,reactive_intentional_encoding,3.2.4,60.03188257458548,
24,images/chair_deck.jpg,images/oprah_b.jpg,face,0,23,23,23,,,30.23634174000472,29.75358447599865,30.23634174000472,29.75358447599865,,,k,001,2020_May_29_1259,reactive_intentional_encoding,3.2.4,60.03188257458548,
25,images/chalkboarderaser.png,images/acropolis_c.jpg,scene,0,24,24,24,,,31.236776938996627,30.753848031992675,31.236776938996627,30.753848031992675,,,k,001,2020_May_29_1259,reactive_intentional_encoding,3.2.4,60.03188257458548,
26,images/champagne.jpg,images/arches_national_park_a.jpg,scene,0,25,25,25,,,32.23630706999393,31.75386638600321,32.23630706999393,31.75386638600321,,,k,001,2020_May_29_1259,reactive_intentional_encoding,3.2.4,60.03188257458548,
27,images/checkers_board.png,images/cn_tower_b.jpg,scene,0,26,26,26,,,33.23682584699418,32.7575168540061,33.23682584699418,32.7575168540061,,,k,001,2020_May_29_1259,reactive_intentional_encoding,3.2.4,60.03188257458548,
28,images/cheeseGouda.png,images/eiffel_tower_c.jpg,scene,0,27,27,27,,,34.23727238200081,33.75321892699867,34.23727238200081,33.75321892699867,,,k,001,2020_May_29_1259,reactive_intentional_encoding,3.2.4,60.03188257458548,
29,images/chest_toys.png,images/empire_state_building_a.jpg,scene,0,28,28,28,,,35.23707632899459,34.75312677999318,35.23707632899459,34.75312677999318,,,k,001,2020_May_29_1259,reactive_intentional_encoding,3.2.4,60.03188257458548,
30,images/chick.jpg,images/flatiron_building_b.jpg,scene,0,29,29,29,,,36.220602835004684,35.753586449005525,36.220602835004684,35.753586449005525,,,k,001,2020_May_29_1259,reactive_intentional_encoding,3.2.4,60.03188257458548,
31,images/drum.png,images/forbidden_city_c.jpg,scene,0,30,30,30,,,37.45338687799813,36.98716802000126,37.45338687799813,36.98716802000126,,,k,001,2020_May_29_1259,reactive_intentional_encoding,3.2.4,60.03188257458548,
32,images/dryingmachine02.png,images/waikiki_c.jpg,scene,0,31,31,31,,,38.26985531899845,None,38.26985531899845,None,,,k,001,2020_May_29_1259,reactive_intentional_encoding,3.2.4,60.03188257458548,
33,images/dust_pan.jpg,images/gaudi_cathedral_c.jpg,scene,0,32,32,32,,,39.26979408599436,None,39.26979408599436,None,,,k,001,2020_May_29_1259,reactive_intentional_encoding,3.2.4,60.03188257458548,
34,images/earrings_dangling.jpg,images/giants_causeway_b.jpg,scene,0,33,33,33,,,40.25394220800081,None,40.25394220800081,None,,,k,001,2020_May_29_1259,reactive_intentional_encoding,3.2.4,60.03188257458548,
35,images/egg_easter.jpg,images/giza_pyramids_c.jpg,scene,0,34,34,34,,,41.25390819799213,None,41.25390819799213,None,,,k,001,2020_May_29_1259,reactive_intentional_encoding,3.2.4,60.03188257458548,
36,images/electricoutlet.png,images/glacier_national_park_c.jpg,scene,0,35,35,35,,,42.270739137005876,None,42.270739137005876,None,,,k,001,2020_May_29_1259,reactive_intentional_encoding,3.2.4,60.03188257458548,
37,images/elephant.png,images/golden_gate_bridge_b.jpg,scene,0,36,36,36,,,43.254061790998094,None,43.254061790998094,None,,,k,001,2020_May_29_1259,reactive_intentional_encoding,3.2.4,60.03188257458548,
38,images/englishmuffin.png,images/grand_canyon_c.jpg,scene,0,37,37,37,,,44.270692295001936,None,44.270692295001936,None,,,k,001,2020_May_29_1259,reactive_intentional_encoding,3.2.4,60.03188257458548,
39,images/eraser.png,images/grand_tetons_a.jpg,scene,0,38,38,38,,,45.253995798993856,None,45.253995798993856,None,,,k,001,2020_May_29_1259,reactive_intentional_encoding,3.2.4,60.03188257458548,
40,images/escalator.png,images/great_wall_of_china_c.jpg,scene,0,39,39,39,,,46.25388382199162,None,46.25388382199162,None,,,k,001,2020_May_29_1259,reactive_intentional_encoding,3.2.4,60.03188257458548,
41,images/eyeMask.jpg,images/iguazu_falls_b.jpg,scene,0,40,40,40,,,47.25326923899411,None,47.25326923899411,None,,,k,001,2020_May_29_1259,reactive_intentional_encoding,3.2.4,60.03188257458548,
42,images/fan.png,images/joshua_tree_c.jpg,scene,0,41,41,41,,,48.253999634995125,None,48.253999634995125,None,,,k,001,2020_May_29_1259,reactive_intentional_encoding,3.2.4,60.03188257458548,
43,images/feather.png,images/machu_picchu_c.jpg,scene,0,42,42,42,,,49.2539201269974,None,49.2539201269974,None,,,k,001,2020_May_29_1259,reactive_intentional_encoding,3.2.4,60.03188257458548,
44,images/figurine_ballerina.jpg,images/neuschwanstein_castle_c.jpg,scene,0,43,43,43,,,50.2539887669991,None,50.2539887669991,None,,,k,001,2020_May_29_1259,reactive_intentional_encoding,3.2.4,60.03188257458548,
45,images/firehydrant.png,images/serengeti_c.jpg,scene,0,44,44,44,,,51.270611550004105,None,51.270611550004105,None,,,k,001,2020_May_29_1259,reactive_intentional_encoding,3.2.4,60.03188257458548,
46,images/flamingo.png,images/stonehenge_b.jpg,scene,0,45,45,45,,,52.25369985999714,None,52.25369985999714,None,,,k,001,2020_May_29_1259,reactive_intentional_encoding,3.2.4,60.03188257458548,
47,images/flashlight.png,images/times_square_b.jpg,scene,0,46,46,46,,,53.25385934699443,None,53.25385934699443,None,,,k,001,2020_May_29_1259,reactive_intentional_encoding,3.2.4,60.03188257458548,
48,images/mannequin.jpg,images/tower_of_pisa_c.jpg,scene,0,47,47,47,,,54.253854056005366,None,54.253854056005366,None,,,k,001,2020_May_29_1259,reactive_intentional_encoding,3.2.4,60.03188257458548,
,,,,,,,,,,,,,,54.753497772995615,None,,,,,,,
