trial,image_a,image_b,category_b,image_correct,image_alternative1,image_alternative2,trials.thisRepN,trials.thisTrialN,trials.thisN,trials.thisIndex,trials_2.thisRepN,trials_2.thisTrialN,trials_2.thisN,trials_2.thisIndex,trials_3.thisRepN,trials_3.thisTrialN,trials_3.thisN,trials_3.thisIndex,Instruction_text.started,Instruction_text.stopped,a_image.started,a_image.stopped,b_image.started,b_image.stopped,text.started,text.stopped,key_resp_instruction2_0.keys,key_resp_instruction2_0.rt,key_resp_instruction2_0.started,key_resp_instruction2_0.stopped,instruct_text.started,instruct_text.stopped,a_image_retrieve.started,a_image_retrieve.stopped,text_2.started,text_2.stopped,correct_pair.started,correct_pair.stopped,afc_text.started,afc_text.stopped,alternative_1.started,alternative_1.stopped,alternative_2.started,alternative_2.stopped,participant,sex,age,,date,expName,psychopyVersion,frameRate,
1,images/flipflopsBlue.png,images/amy_poehler_c.jpg,face,,,,0,0,0,0,,,,,,,,,14.266330546990503,None,None,None,None,None,,,,,,,,,,,,,,,,,,,,,l,001,,,2020_May_29_1426,reactive_intentional_encoding,3.2.4,59.937595851020625,
2,images/bag_gift.png,images/bill_gates_a.jpg,face,,,,0,1,1,1,,,,,,,,,,,17.28377969400026,None,17.28377969400026,None,,,,,,,,,,,,,,,,,,,,,l,001,,,2020_May_29_1426,reactive_intentional_encoding,3.2.4,59.937595851020625,
3,images/ball_8.png,images/courtney_cox_c.jpg,face,,,,0,2,2,2,,,,,,,,,,,18.78031576400099,None,18.78031576400099,None,,,,,,,,,,,,,,,,,,,,,l,001,,,2020_May_29_1426,reactive_intentional_encoding,3.2.4,59.937595851020625,
4,images/ball_baseball.png,images/dakota_fanning_c.jpg,face,,,,0,3,3,3,,,,,,,,,,,20.279024629999185,None,20.279024629999185,None,,,,,,,,,,,,,,,,,,,,,l,001,,,2020_May_29_1426,reactive_intentional_encoding,3.2.4,59.937595851020625,
5,images/balloon.jpg,images/drew_barrymore_c.jpg,face,,,,0,4,4,4,,,,,,,,,,,21.86253395699896,None,21.86253395699896,None,,,,,,,,,,,,,,,,,,,,,l,001,,,2020_May_29_1426,reactive_intentional_encoding,3.2.4,59.937595851020625,
6,images/bandage.jpg,images/ellen_degeneres_b.jpg,face,,,,0,5,5,5,,,,,,,,,,,23.446323380994727,None,23.446323380994727,None,,,,,,,,,,,,,,,,,,,,,l,001,,,2020_May_29_1426,reactive_intentional_encoding,3.2.4,59.937595851020625,
7,images/barrel.jpg,images/emma_stone.jpg,face,,,,0,6,6,6,,,,,,,,,,,24.96302217199991,None,24.96302217199991,None,,,,,,,,,,,,,,,,,,,,,l,001,,,2020_May_29_1426,reactive_intentional_encoding,3.2.4,59.937595851020625,
8,images/bathrobe.png,images/emma_watson.jpg,face,,,,0,7,7,7,,,,,,,,,,,26.462810162993264,None,26.462810162993264,None,,,,,,,,,,,,,,,,,,,,,l,001,,,2020_May_29_1426,reactive_intentional_encoding,3.2.4,59.937595851020625,
9,images/beetle.png,images/george_clooney_a.jpg,face,,,,0,8,8,8,,,,,,,,,,,27.762772387999576,None,27.762772387999576,None,,,,,,,,,,,,,,,,,,,,,l,001,,,2020_May_29_1426,reactive_intentional_encoding,3.2.4,59.937595851020625,
10,images/bench_park.png,images/gwen_stefani_c.jpg,face,,,,0,9,9,9,,,,,,,,,,,29.26341696899908,None,29.26341696899908,None,,,,,,,,,,,,,,,,,,,,,l,001,,,2020_May_29_1426,reactive_intentional_encoding,3.2.4,59.937595851020625,
11,images/bib.png,images/hillary_clinton_a.jpg,face,,,,0,10,10,10,,,,,,,,,,,30.813158258999465,None,30.813158258999465,None,,,,,,,,,,,,,,,,,,,,,l,001,,,2020_May_29_1426,reactive_intentional_encoding,3.2.4,59.937595851020625,
12,images/bird_parrot.png,images/jackie_kennedy_a.jpg,face,,,,0,11,11,11,,,,,,,,,,,32.26326625198999,None,32.26326625198999,None,,,,,,,,,,,,,,,,,,,,,l,001,,,2020_May_29_1426,reactive_intentional_encoding,3.2.4,59.937595851020625,
,,,,,,,,,,,0,0,0,0,,,,,,,,,,,32.749820696000825,None,space,1.403103168006055,32.749820696000825,None,,,,,,,,,,,,,,,l,001,,,2020_May_29_1426,reactive_intentional_encoding,3.2.4,59.937595851020625,
10,images/bench_park.png,,face,images/gwen_stefani_c.jpg,images/gwen_stefani_c.jpg,images/gwen_stefani_c.jpg,,,,,,,,,0,0,0,9,,,,,,,,,,,,,34.69718298899534,36.696193598996615,34.69718298899534,36.696193598996615,36.184682967999834,36.696193598996615,37.21304466298898,None,37.21304466298898,None,37.21304466298898,None,37.21304466298898,None,l,001,,,2020_May_29_1426,reactive_intentional_encoding,3.2.4,59.937595851020625,
12,images/bird_parrot.png,,face,images/jackie_kennedy_a.jpg,images/jackie_kennedy_a.jpg,images/jackie_kennedy_a.jpg,,,,,,,,,0,1,1,11,,,,,,,,,,,,,40.68458268899121,42.69646041399392,40.68458268899121,42.69646041399392,42.18198178098828,42.69646041399392,43.19636805499613,None,43.19636805499613,None,43.19636805499613,None,43.19636805499613,None,l,001,,,2020_May_29_1426,reactive_intentional_encoding,3.2.4,59.937595851020625,
1,images/flipflopsBlue.png,,face,images/amy_poehler_c.jpg,images/tower_of_pisa_c.jpg,images/amy_poehler_c.jpg,,,,,,,,,0,2,2,0,,,,,,,,,,,,,46.713374920000206,48.7298174489988,46.713374920000206,48.7298174489988,48.21264964599686,48.7298174489988,49.2294088560011,None,49.2294088560011,None,49.2294088560011,None,49.2294088560011,None,l,001,,,2020_May_29_1426,reactive_intentional_encoding,3.2.4,59.937595851020625,
6,images/bandage.jpg,,face,images/ellen_degeneres_b.jpg,images/ellen_degeneres_b.jpg,images/ellen_degeneres_b.jpg,,,,,,,,,0,3,3,5,,,,,,,,,,,,,52.71739884398994,54.72966077999445,52.71739884398994,54.72966077999445,54.21290506600053,54.72966077999445,55.2295129159902,None,55.2295129159902,None,55.2295129159902,None,55.2295129159902,None,l,001,,,2020_May_29_1426,reactive_intentional_encoding,3.2.4,59.937595851020625,
7,images/barrel.jpg,,face,images/emma_stone.jpg,images/emma_stone.jpg,images/emma_stone.jpg,,,,,,,,,0,4,4,6,,,,,,,,,,,,,58.71346745498886,60.729936267001904,58.71346745498886,60.729936267001904,60.21223975298926,60.729936267001904,61.22970821100171,None,61.22970821100171,None,61.22970821100171,None,61.22970821100171,None,l,001,,,2020_May_29_1426,reactive_intentional_encoding,3.2.4,59.937595851020625,
8,images/bathrobe.png,,face,images/emma_watson.jpg,images/emma_watson.jpg,images/emma_watson.jpg,,,,,,,,,0,5,5,7,,,,,,,,,,,,,64.69601937598782,66.69579133599473,64.69601937598782,66.69579133599473,66.18296237799223,66.69579133599473,67.21291219200066,None,67.21291219200066,None,67.21291219200066,None,67.21291219200066,None,l,001,,,2020_May_29_1426,reactive_intentional_encoding,3.2.4,59.937595851020625,
9,images/beetle.png,,face,images/george_clooney_a.jpg,images/george_clooney_a.jpg,images/george_clooney_a.jpg,,,,,,,,,0,6,6,8,,,,,,,,,,,,,70.66663859300024,72.67967618200055,70.66663859300024,72.67967618200055,72.16586235699651,72.67967618200055,73.18225705598888,None,73.18225705598888,None,73.18225705598888,None,73.18225705598888,None,l,001,,,2020_May_29_1426,reactive_intentional_encoding,3.2.4,59.937595851020625,
11,images/bib.png,,face,images/hillary_clinton_a.jpg,images/hillary_clinton_a.jpg,images/hillary_clinton_a.jpg,,,,,,,,,0,7,7,10,,,,,,,,,,,,,76.69530217199645,78.71293877999415,76.69530217199645,78.71293877999415,78.19531458900019,78.71293877999415,79.19541659699462,None,79.19541659699462,None,79.19541659699462,None,79.19541659699462,None,l,001,,,2020_May_29_1426,reactive_intentional_encoding,3.2.4,59.937595851020625,
